"Time (s)","Linear Acceleration x (m/s^2)","Linear Acceleration y (m/s^2)","Linear Acceleration z (m/s^2)","Absolute acceleration (m/s^2)"
2.677333000E-3,1.882425547E-1,-3.450293541E-1,1.803607941E-1,4.324471420E-1
7.682256000E-3,3.411168754E-1,-1.436338425E-1,1.775732040E-1,4.105163166E-1
1.268719800E-2,3.409270644E-1,-1.342074871E-1,1.747875214E-1,4.059477682E-1
1.769204500E-2,3.780326247E-1,-4.923152924E-2,1.072263718E-1,3.960175547E-1
2.269696800E-2,3.770475686E-1,-4.035973549E-2,1.046409607E-1,3.933745135E-1
2.770189600E-2,3.019268513E-1,1.566624641E-2,9.964466095E-2,3.183305095E-1
3.270681900E-2,2.236493677E-1,1.300063133E-1,8.378505707E-2,2.719202401E-1
3.768105000E-2,2.237919867E-1,1.378078461E-1,8.151245117E-2,2.751692851E-1
4.268597300E-2,7.181125879E-2,1.066954136E-1,7.920265198E-2,1.510424717E-1
4.769089600E-2,7.283708453E-2,1.145856380E-1,7.690143585E-2,1.560414694E-1
5.269576100E-2,-1.921560168E-1,4.678988457E-2,2.050209045E-2,1.988304902E-1
5.770068400E-2,-1.888942420E-1,5.441379547E-2,1.824569702E-2,1.974203669E-1
6.270560700E-2,-3.750378788E-1,6.196522713E-2,1.598739624E-2,3.804585348E-1
6.767987000E-2,-3.691565394E-1,2.295553684E-1,1.171398163E-2,4.348671466E-1
7.268471600E-2,-3.646821976E-1,2.351968288E-1,-5.870819092E-3,4.339874653E-1
7.768966800E-2,-2.480926216E-1,3.101835251E-1,-5.345344543E-3,3.972308407E-1
8.269436000E-2,-2.446316779E-1,3.153967857E-1,-6.886482239E-3,3.992082338E-1
8.769951400E-2,-1.638921946E-1,4.034361839E-1,-2.340698242E-2,4.360840433E-1
9.270420200E-2,-1.607974470E-1,4.071714878E-1,-2.451229095E-2,4.384578564E-1
9.770912500E-2,-1.200110540E-1,3.351452351E-1,-2.569198608E-2,3.569104367E-1
1.026835860E-1,-1.172072515E-1,3.391034603E-1,-2.685070038E-2,3.597911293E-1
1.076885190E-1,-4.088266194E-2,3.748672009E-1,-1.191139221E-3,3.770918046E-1
1.126933660E-1,-7.415152341E-2,2.696833611E-1,-3.989219666E-3,2.797203559E-1
1.176982890E-1,-7.152350992E-2,2.731730938E-1,-5.006790161E-3,2.824256001E-1
1.227032220E-1,-1.464747638E-1,2.334399223E-1,-6.667137146E-3,2.756691939E-1
1.276774520E-1,-1.412255317E-1,2.422642708E-1,-9.208679199E-3,2.805733905E-1
1.326823080E-1,1.379224658E-2,2.458555698E-1,-1.023864746E-2,2.464548989E-1
1.376872310E-1,1.569281518E-2,2.483968735E-1,-1.097297668E-2,2.491338544E-1
1.426921540E-1,9.088189900E-2,2.460577488E-1,-5.920982361E-2,2.689047016E-1
1.476970880E-1,1.681571156E-1,1.716916561E-1,-5.993366241E-2,2.476830317E-1
1.527017800E-1,1.685604453E-1,1.742184162E-1,-6.064033508E-2,2.498838340E-1
1.577066980E-1,2.823422551E-1,1.381804943E-1,-5.620193481E-2,3.193268788E-1
1.626811600E-1,2.810901999E-1,1.400771141E-1,-5.670928955E-2,3.191382803E-1
1.676860830E-1,3.566399217E-1,2.794957161E-2,-5.749797821E-2,3.623247573E-1
1.726909380E-1,3.553091884E-1,3.084802628E-2,-5.827903748E-2,3.613760732E-1
1.776958610E-1,2.771217823E-1,-1.578490734E-1,-2.617263794E-2,3.199965925E-1
1.827005540E-1,3.137144744E-1,-2.302169800E-1,-2.716732025E-2,3.900701125E-1
1.877223330E-1,3.123624027E-1,-2.265579700E-1,-2.815437317E-2,3.868997973E-1
1.926799480E-1,1.588738114E-1,-7.079863548E-2,-2.890491486E-2,1.763202451E-1
1.976848710E-1,1.583869755E-1,-6.806564331E-2,-1.569843292E-2,1.731063448E-1
2.026898230E-1,8.105184138E-2,-2.834725380E-2,-1.613712311E-2,8.736918525E-2
2.076946690E-1,8.067007363E-2,-2.674245834E-2,-1.657199860E-2,8.658782244E-2
2.126995880E-1,8.014304936E-2,-1.002933979E-1,3.075218201E-2,1.320127673E-1
2.177045110E-1,1.559280455E-1,1.461458206E-2,3.052234650E-2,1.595579989E-1
2.226787410E-1,1.547730267E-1,1.551437378E-2,3.029441833E-2,1.584712509E-1
2.276836600E-1,3.448966444E-1,3.218436241E-1,3.052139282E-2,4.727246229E-1
2.326885830E-1,3.427614570E-1,3.220288754E-1,1.460647583E-2,4.705330616E-1
2.376934240E-1,3.408294618E-1,5.504534245E-1,1.505565643E-2,6.476035572E-1
2.426983470E-1,3.389034867E-1,5.489318371E-1,1.550483704E-2,6.453077832E-1
2.477032800E-1,2.222993523E-1,5.468397141E-1,-4.989528656E-2,5.924020717E-1
2.526775110E-1,-4.660345614E-2,5.825297832E-1,-4.927539825E-2,5.864647435E-1
2.576824340E-1,-4.630395770E-2,5.792655945E-1,-4.838371277E-2,5.831240598E-1
2.626873420E-1,-2.734168172E-1,5.772202015E-1,-4.783630371E-2,6.404906158E-1
2.676921880E-1,-2.727010846E-1,5.755879879E-1,-1.500129700E-3,6.369220233E-1
2.726970970E-1,-5.009356737E-1,6.887323856E-1,-1.003265381E-3,8.516395099E-1
2.777020200E-1,-5.011576414E-1,6.884663105E-1,-9.260177612E-4,8.515548718E-1
2.827067080E-1,-5.386170149E-1,6.486651897E-1,-3.344154358E-2,8.437968677E-1
2.877116310E-1,-5.370814800E-1,6.468176842E-1,-3.295612335E-2,8.413772868E-1
2.926860920E-1,-4.213577509E-1,4.913372993E-1,-3.257465363E-2,6.480862628E-1
2.976910200E-1,-3.437398076E-1,4.141047001E-1,-3.225612640E-2,5.391476752E-1
3.026958660E-1,-3.431895375E-1,4.128777981E-1,-3.687667847E-2,5.381514882E-1
3.077007900E-1,-2.658281922E-1,2.592513561E-1,-3.670883179E-2,3.731265627E-1
3.127057130E-1,-2.653967142E-1,2.583444118E-1,-3.646564484E-2,3.721652782E-1
3.177106210E-1,-2.274288237E-1,1.433949471E-1,-7.650184631E-2,2.795326693E-1
3.226847750E-1,-2.256519496E-1,1.421802044E-1,-7.619476318E-2,2.773799828E-1
3.276896980E-1,-3.710342944E-2,2.797245979E-2,-7.640361786E-2,8.942391070E-2
3.326946310E-1,3.654445708E-2,-1.225962639E-1,-7.702255249E-2,1.493245286E-1
3.376995540E-1,3.621208668E-2,-1.215205193E-1,1.868534088E-2,1.281705652E-1
3.427042460E-1,2.614976168E-1,-1.954975128E-1,1.794433594E-2,3.269897250E-1
3.476786880E-1,2.593326569E-1,-1.939373016E-1,1.755142212E-2,3.243041108E-1
3.526836110E-1,3.688942194E-1,-1.536893845E-1,1.701068878E-2,3.999909193E-1
3.576885480E-1,3.664178848E-1,-1.527900696E-1,-4.514312744E-2,3.995557203E-1
3.626933940E-1,3.635688722E-1,-2.661645412E-1,-4.555320740E-2,4.528807598E-1
3.676983170E-1,3.605094850E-1,-1.500198841E-1,-4.579830170E-2,3.931545992E-1
3.727032210E-1,3.567373455E-1,-1.486392021E-1,8.943557739E-3,3.865684070E-1
3.776773750E-1,3.164153695E-1,-2.619347572E-1,8.506774902E-3,4.108538284E-1
3.826822980E-1,3.140596151E-1,-2.601957321E-1,8.074760437E-3,4.079221281E-1
3.876872210E-1,1.974881440E-1,-2.197144032E-1,7.698059082E-3,2.955253730E-1
3.926921440E-1,1.959621161E-1,-2.176055908E-1,6.414794922E-2,2.997804255E-1
3.976970330E-1,2.322206497E-1,-2.155508995E-1,6.362247467E-2,3.231662726E-1
4.027019570E-1,1.163037419E-1,-2.519357204E-1,6.292343140E-2,2.845303601E-1
4.077068850E-1,1.156006306E-1,-2.496409416E-1,8.030986786E-2,2.865899168E-1
4.126811150E-1,2.661228478E-1,-2.849051952E-1,7.962608337E-2,3.979103587E-1
4.176860390E-1,2.640275359E-1,-2.822766304E-1,7.895183563E-2,3.944921142E-1
4.226908750E-1,1.869300753E-1,-2.781851292E-1,7.785892487E-2,3.440811406E-1
4.276957980E-1,1.858716607E-1,-2.752768993E-1,1.100893021E-1,3.499218484E-1
4.327007120E-1,3.361672759E-1,-3.493311405E-1,1.093587875E-1,4.969909733E-1
4.377056350E-1,3.333761096E-1,-3.443486691E-1,1.080656052E-1,4.913184419E-1
4.426798660E-1,2.931478024E-1,-2.632102966E-1,1.069803238E-1,4.082402282E-1
4.476847980E-1,4.039319456E-1,-2.569401264E-1,9.725475311E-2,4.885056112E-1
4.526896440E-1,3.999758363E-1,-2.510609627E-1,9.575843811E-2,4.818526279E-1
4.576945670E-1,2.829168439E-1,-2.075624466E-1,9.433555603E-2,3.633501162E-1
4.626994850E-1,2.800817788E-1,-2.021625042E-1,1.180009842E-1,3.650201545E-1
4.677044080E-1,2.387114018E-1,-4.377412796E-2,1.168947220E-1,2.693764720E-1
4.726786350E-1,2.372969240E-1,-4.334306717E-2,1.168117523E-1,2.680176059E-1
4.776835580E-1,1.186404079E-1,-1.101765633E-1,1.141977310E-1,1.981301170E-1
4.826884040E-1,4.249653220E-2,4.861831665E-3,1.081666946E-1,1.163169226E-1
4.876933220E-1,4.036879539E-2,1.032924652E-2,1.067628860E-1,1.146064868E-1
4.926982450E-1,-1.148395091E-1,1.575970650E-2,1.053495407E-1,1.566365441E-1
4.977031690E-1,-1.167377532E-1,2.204203606E-2,9.968280792E-2,1.550813224E-1
5.026773990E-1,-3.101920784E-1,1.101431847E-1,9.658718109E-2,3.430447932E-1
5.076823220E-1,-3.083555996E-1,1.096627712E-1,9.666824341E-2,3.412533494E-1
5.126871400E-1,-3.468647003E-1,1.542146206E-1,9.522342682E-2,3.913627097E-1
5.176920630E-1,-2.753340006E-1,3.190379143E-1,7.529067993E-2,4.280919167E-1
5.226969860E-1,-2.738357782E-1,3.175151348E-1,7.565116882E-2,4.260575004E-1
5.277019180E-1,-2.754229009E-1,4.372487068E-1,7.446861267E-2,5.221013122E-1
5.327066100E-1,-2.769010067E-1,4.417929649E-1,5.427074432E-2,5.242141786E-1
5.376810720E-1,-1.273068488E-1,4.840974808E-1,5.319786072E-2,5.033760195E-1
5.426859620E-1,-1.296228766E-1,4.883906841E-1,5.214309692E-2,5.079827291E-1
5.476908850E-1,-5.538396537E-2,5.315871239E-1,5.112648010E-2,5.369042474E-1
5.526957360E-1,1.599723101E-2,5.417232513E-1,1.970863342E-2,5.423176400E-1
5.577006590E-1,1.593688130E-2,5.390589237E-1,2.039718628E-2,5.396800465E-1
5.627055820E-1,-6.347331405E-2,5.036396980E-1,1.953601837E-2,5.079994715E-1
5.676798170E-1,-6.841602921E-2,5.133306980E-1,1.717853546E-2,5.181546687E-1
5.726846630E-1,-1.076070219E-1,5.540235043E-1,-6.827068329E-2,5.684911614E-1
5.776895770E-1,-1.068740338E-1,5.504188538E-1,-6.736660004E-2,5.647311152E-1
5.826942700E-1,-1.081351489E-1,5.521008968E-1,-6.776428223E-2,5.666573997E-1
5.876994040E-1,-1.094994098E-1,5.921905041E-1,-1.517486572E-2,6.024201112E-1
5.927040970E-1,-1.108110994E-1,5.943002701E-1,-1.567935944E-2,6.047460236E-1
5.977090200E-1,4.087975621E-2,6.331424713E-1,-1.583290100E-2,6.346583523E-1
6.026834850E-1,3.957816958E-2,6.338772774E-1,-1.598453522E-2,6.353127888E-1
6.076884090E-1,1.148203015E-1,5.589215755E-1,1.784324646E-3,5.705963662E-1
6.126933130E-1,1.131570637E-1,5.600144863E-1,1.551628113E-3,5.713345373E-1
6.176982360E-1,1.876972616E-1,5.616295338E-1,1.181602478E-3,5.921650035E-1
6.227030960E-1,1.866895258E-1,5.587122440E-1,-4.043579102E-3,5.890914201E-1
6.276773270E-1,1.097750962E-1,5.191340446E-1,-3.870964050E-3,5.306276589E-1
6.326822320E-1,-4.435148835E-2,4.829218388E-1,-4.308700562E-3,4.849733207E-1
6.376870780E-1,-4.405039549E-2,4.801793098E-1,-3.615379333E-3,4.822091641E-1
6.426920010E-1,-1.189875156E-1,4.008474350E-1,-4.125595093E-3,4.181551333E-1
6.476969240E-1,-1.178819090E-1,3.986287117E-1,-3.588676453E-3,4.157088799E-1
6.527018470E-1,-2.302334011E-1,2.425503731E-1,-2.875328064E-3,3.344344031E-1
6.577067740E-1,-2.279239297E-1,2.393174171E-1,1.940727234E-3,3.304934346E-1
6.626810050E-1,-1.114373952E-1,2.361340523E-1,2.719879150E-3,2.611225410E-1
6.676859280E-1,-1.100372523E-1,2.708766460E-1,3.545761108E-3,2.923951550E-1
6.726908230E-1,-1.085340232E-1,2.664263248E-1,4.652976990E-3,2.877225590E-1
6.776956690E-1,6.460011005E-3,1.886212826E-1,-3.299140930E-2,1.915937188E-1
6.827003670E-1,7.803171873E-3,1.816496849E-1,-3.122329712E-2,1.844787028E-1
6.877055210E-1,2.358412147E-1,-4.798245430E-2,-3.125286102E-2,2.426935017E-1
6.926797700E-1,2.353491187E-1,-5.289435387E-2,-2.996349335E-2,2.430737157E-1
6.976846170E-1,4.229245782E-1,-5.551934242E-2,-1.313781738E-2,4.267554317E-1
7.026895400E-1,4.961021245E-1,-9.589171410E-2,-1.243591309E-2,5.054376229E-1
7.076944810E-1,4.922282100E-1,-9.814643860E-2,-1.173686981E-2,5.020548657E-1
7.126994040E-1,2.981825471E-1,-1.003704071E-1,1.952171326E-3,3.146281313E-1
7.177040780E-1,2.961544991E-1,-1.025724411E-1,2.586364746E-3,3.134250824E-1
7.226785400E-1,2.189107537E-1,4.695200920E-2,3.530502319E-3,2.239171135E-1
7.276834630E-1,2.170108557E-1,4.658842087E-2,3.681182861E-3,2.219859084E-1
7.326883860E-1,6.368753314E-2,4.089879990E-2,1.205158234E-2,7.664237958E-2
7.376933090E-1,6.376293302E-2,1.526272297E-1,1.292133331E-2,1.659148689E-1
7.426981550E-1,6.330335140E-2,1.515915394E-1,1.320648193E-2,1.648081317E-1
7.477030770E-1,-1.196637750E-2,1.862328053E-1,4.810810089E-2,1.927180358E-1
7.526773080E-1,-1.133874059E-2,1.829462051E-1,4.895496368E-2,1.897220849E-1
7.576822310E-1,-4.948154092E-2,2.941968441E-1,4.993247986E-2,3.024788563E-1
7.626871350E-1,-4.905623198E-2,2.914404869E-1,5.064773560E-2,2.998487359E-1
7.676919810E-1,-8.643135428E-2,4.026072025E-1,-3.429698944E-2,4.132060285E-1
7.726969190E-1,-8.570560813E-2,3.987481594E-1,-3.329563141E-2,4.092116139E-1
7.777018420E-1,-1.618403941E-1,3.956258297E-1,-3.249168396E-2,4.286814899E-1
7.827065350E-1,-1.609596163E-1,3.544991016E-1,-3.771305084E-2,3.911519978E-1
7.877114580E-1,-1.600859016E-1,3.514966965E-1,-3.693962097E-2,3.879973700E-1
7.926859190E-1,-1.970063150E-1,4.242835045E-1,-3.610038757E-2,4.691814343E-1
7.976908430E-1,-1.959792376E-1,4.210417271E-1,-3.526496887E-2,4.657548878E-1
8.026957660E-1,-1.575604528E-1,4.188456535E-1,-3.791809082E-3,4.475168774E-1
8.077006250E-1,-1.576171666E-1,4.169020653E-1,-3.271102905E-3,4.457142620E-1
8.127055480E-1,-2.703916430E-1,4.151930809E-1,-2.848625183E-3,4.954846614E-1
8.177104620E-1,-2.685458064E-1,4.124755859E-1,-3.412342072E-2,4.933734559E-1
8.226846160E-1,-2.671702802E-1,4.104917049E-1,-3.363037109E-2,4.909321749E-1
8.276895390E-1,-1.525347382E-1,3.707160950E-1,-3.315925598E-2,4.022397366E-1
8.326944900E-1,-1.519088596E-1,3.689062595E-1,-3.269100189E-2,4.002959300E-1
8.376994130E-1,1.844793558E-3,2.527515888E-1,-2.143573761E-2,2.536656456E-1
8.427041050E-1,1.549601555E-3,2.516567707E-1,-2.113342285E-2,2.525473284E-1
8.476787660E-1,3.889989853E-2,2.128205299E-1,-2.087879181E-2,2.173515678E-1
8.526834580E-1,1.146953106E-1,2.497234344E-1,-2.056407928E-2,2.755715685E-1
8.576883890E-1,1.135335565E-1,2.489378452E-1,-2.122020721E-2,2.744270694E-1
8.626933120E-1,7.379159331E-2,2.098796368E-1,-2.090072632E-2,2.234535780E-1
8.676981580E-1,7.305559516E-2,2.087814808E-1,-2.058410645E-2,2.221497966E-1
8.727031200E-1,1.492230594E-1,1.684775352E-1,2.374458313E-2,2.263095371E-1
8.776773510E-1,1.482989490E-1,1.671860218E-1,2.411937714E-2,2.247787546E-1
8.826821970E-1,1.473385692E-1,1.280157566E-1,2.443504333E-2,1.967072933E-1
8.876871300E-1,1.464272439E-1,1.648397446E-1,2.480602264E-2,2.218747798E-1
8.926920530E-1,1.458471715E-1,1.625483036E-1,2.649116516E-2,2.199889322E-1
8.976969670E-1,-7.089108229E-3,1.615290642E-1,2.676486969E-2,1.638848751E-1
9.027016590E-1,-6.616890430E-3,1.592435837E-1,2.736949921E-2,1.617139192E-1
9.077067940E-1,1.075739264E-1,1.186282635E-1,-2.997970581E-2,1.629220590E-1
9.126810250E-1,1.068757176E-1,1.161429882E-1,-2.928543091E-2,1.605280324E-1
9.176859480E-1,3.005242348E-2,1.515622139E-1,-2.856254578E-2,1.571307477E-1
9.226907890E-1,3.028419614E-2,1.483974457E-1,-2.770996094E-2,1.539700502E-1
9.276957120E-1,3.051805496E-2,1.452798843E-1,-2.581977844E-2,1.506793199E-1
9.327006350E-1,6.844437122E-2,2.187590599E-1,-2.487277985E-2,2.305619514E-1
9.377055580E-1,6.820946932E-2,2.154376507E-1,-2.396106720E-2,2.272444626E-1
9.426797890E-1,-7.321238518E-3,1.743640900E-1,-2.311801910E-2,1.760422654E-1
9.476846300E-1,-6.958633661E-3,1.715068817E-1,3.602027893E-3,1.716857818E-1
9.526895530E-1,3.095397353E-2,2.052690983E-1,4.750251770E-3,2.076442055E-1
9.576944760E-1,3.074741364E-2,2.039201260E-1,5.125999451E-3,2.062888681E-1
9.626993790E-1,1.067168713E-1,8.708310127E-2,7.595062256E-3,1.379479688E-1
9.677040720E-1,1.437079012E-1,1.997067928E-1,8.293151855E-3,2.461778632E-1
9.726785190E-1,1.426074505E-1,1.972973347E-1,8.988380432E-3,2.436060635E-1
9.776834420E-1,1.413549781E-1,8.052730560E-2,9.498596191E-3,1.629604250E-1
9.826882890E-1,1.399691999E-1,7.934403419E-2,1.091480255E-2,1.612637144E-1
9.876932120E-1,1.386532485E-1,1.160306931E-1,1.134300232E-2,1.811532742E-1
9.926981350E-1,1.373439729E-1,1.146287918E-1,1.176834106E-2,1.792808430E-1
9.977030580E-1,9.821426868E-2,1.895673275E-1,-1.164531708E-2,2.138163409E-1
1.002677289E0,9.733536839E-2,1.878874302E-1,-1.115608215E-2,2.118969526E-1
1.007682212E0,9.646281600E-2,1.862194538E-1,-1.066875458E-2,2.099918622E-1
1.012687140E0,1.333184540E-1,7.053875923E-2,-1.045703888E-2,1.511915222E-1
1.017691986E0,1.310991049E-1,6.989383698E-2,-8.261680603E-3,1.487964352E-1
1.022696909E0,-6.087255478E-2,1.070678234E-1,-8.006095886E-3,1.234223817E-1
1.027701827E0,-6.033530831E-2,1.061706543E-1,-7.775306702E-3,1.223642622E-1
1.032706750E0,1.482847333E-2,1.824176311E-1,4.152393341E-2,1.876707564E-1
1.037680981E0,-6.169652939E-2,1.436445713E-1,4.173946381E-2,1.618097878E-1
1.042685894E0,-6.244930625E-2,1.431505680E-1,4.189968109E-2,1.617021467E-1
1.047690817E0,-1.009964049E-1,6.600403786E-2,4.192543030E-2,1.277284170E-1
1.052695673E0,-1.014454663E-1,6.596493721E-2,4.390144348E-2,1.287240937E-1
1.057700596E0,-6.435549259E-2,-1.026582718E-2,4.373264313E-2,7.848286889E-2
1.062705519E0,-6.535759568E-2,-9.552717209E-3,4.356765747E-2,7.912654736E-2
1.067679730E0,9.992063046E-3,-4.649281502E-2,4.333782196E-2,6.433964551E-2
1.072684576E0,8.479985595E-2,-7.833719254E-3,4.725933075E-2,9.739521071E-2
1.077689480E0,8.269566298E-2,-7.018089294E-3,4.710006714E-2,9.542663452E-2
1.082694173E0,1.182566285E-1,-1.192405224E-1,4.668998718E-2,1.743068767E-1
1.087699308E0,1.157988012E-1,-1.175203323E-1,5.424499512E-2,1.736747257E-1
1.092704000E0,7.561299205E-2,-7.819843292E-2,5.393409729E-2,1.214133696E-1
1.097708923E0,7.398077846E-2,-7.697653770E-2,5.364990234E-2,1.194857940E-1
1.102683394E0,7.232490182E-2,-1.133739948E-1,5.327701569E-2,1.446478293E-1
1.107688317E0,7.061561942E-2,-1.117532253E-1,3.893566132E-2,1.378090519E-1
1.112693168E0,-1.214588284E-1,2.828836441E-3,3.877830505E-2,1.275304131E-1
1.117698091E0,-1.582898349E-1,-1.097407341E-1,3.834724426E-2,1.963904572E-1
1.122703000E0,-1.575567573E-1,-1.085326672E-1,6.694126129E-2,2.026933745E-1
1.127677231E0,-1.956579238E-1,-3.188347816E-2,6.674671173E-2,2.091738580E-1
1.132682073E0,-1.952947229E-1,-3.102087975E-2,6.649780273E-2,2.086247386E-1
1.137686996E0,-1.550496072E-1,-1.061522961E-1,6.620502472E-2,1.992279999E-1
1.142691919E0,-1.549923271E-1,-1.044769287E-1,-2.565383911E-4,1.869174040E-1
1.147696842E0,1.119932532E-1,-2.816796303E-2,-2.937316895E-4,1.154816401E-1
1.152701535E0,3.405454755E-2,-1.029899120E-1,-6.027221680E-4,1.084757921E-1
1.157706476E0,3.301876783E-2,-1.010494232E-1,6.400012970E-2,1.240856219E-1
1.162680937E0,-6.447166204E-3,-9.805226326E-2,6.322860718E-2,1.168489155E-1
1.167685783E0,-6.388574839E-3,-9.721326828E-2,6.299686432E-2,1.160165434E-1
1.172690706E0,-4.480159283E-2,1.785445213E-2,6.272029877E-2,7.911889824E-2
1.177695630E0,-4.517385364E-2,1.955676079E-2,6.226730347E-2,7.937481355E-2
1.182700553E0,-8.547127247E-3,-5.255341530E-2,6.123447418E-2,8.114539834E-2
1.187705471E0,1.051093638E-1,2.518177032E-2,6.082248688E-2,1.240220739E-1
1.192679702E0,1.037297249E-1,2.684664726E-2,6.041431427E-2,1.230060473E-1
1.197684635E0,-4.940742254E-2,6.769943237E-2,3.681468964E-2,9.154030762E-2
1.202689481E0,-4.904031754E-2,6.730794907E-2,3.690814972E-2,9.109074743E-2
1.207694404E0,2.615544200E-2,-7.282257080E-3,3.629016876E-2,4.532234287E-2
1.212699322E0,2.549764514E-2,-4.889965057E-3,7.571029663E-2,8.003805771E-2
1.217704245E0,-8.930763602E-2,3.544759750E-2,7.505893707E-2,1.219271506E-1
1.222678476E0,-5.043038726E-2,-7.541871071E-2,7.421207428E-2,1.172119356E-1
1.227683394E0,-5.054751039E-2,-7.232236862E-2,7.337760925E-2,1.147599641E-1
1.232688317E0,-8.936807513E-2,8.265471458E-2,3.278636932E-2,1.260690315E-1
1.237693163E0,-8.938625455E-2,8.466029167E-2,3.224563599E-2,1.272676256E-1
1.242698086E0,-1.271266341E-1,1.021814346E-2,3.155517578E-2,1.313823454E-1
1.247703014E0,-1.266368032E-1,1.261401176E-2,-6.009101868E-3,1.274052688E-1
1.252677245E0,-1.637658626E-1,1.498603821E-2,-6.676673889E-3,1.645855919E-1
1.257682168E0,-1.637482494E-1,1.980543137E-2,-7.974624634E-3,1.651343057E-1
1.262687096E0,-2.770589292E-1,9.837293625E-2,-8.467674255E-3,2.941268202E-1
1.267691942E0,-1.229079366E-1,2.121090889E-2,-6.498336792E-3,1.248939226E-1
1.272696856E0,-1.225596964E-1,2.346229553E-2,-7.115364075E-3,1.249879471E-1
1.277701779E0,-8.452764153E-2,-8.860230446E-2,-7.914543152E-3,1.227107596E-1
1.282706476E0,-8.518537879E-2,-8.311963081E-2,1.358890533E-2,1.197918200E-1
1.287711399E0,-1.222272515E-1,-8.242678642E-2,1.336860657E-2,1.480283614E-1
1.292685861E0,-1.218658090E-1,-7.938098907E-2,1.254177094E-2,1.459791521E-1
1.297690766E0,-1.211382151E-1,-3.827524185E-2,1.195526123E-2,1.276024669E-1
1.302695612E0,-1.581564099E-1,-3.617143631E-2,3.236293793E-2,1.654363398E-1
1.307700543E0,-1.572335213E-1,-3.408646584E-2,3.177738190E-2,1.639941139E-1
1.312705466E0,-1.951712221E-1,-1.835918427E-1,3.053283691E-2,2.696850473E-1
1.317710177E0,-1.938312203E-1,-1.824028492E-1,2.272605896E-3,2.661700698E-1
1.322684562E0,-1.537857205E-1,-1.411004066E-1,1.626968384E-3,2.087151638E-1
1.327689485E0,-1.527466625E-1,-1.388227940E-1,9.889602661E-4,2.064080644E-1
1.332694428E0,-1.140739918E-1,-1.753280163E-1,3.042221069E-4,2.091718945E-1
1.337699351E0,-1.501334161E-1,-1.720473766E-1,4.737377167E-2,2.332050957E-1
1.342704044E0,-1.482645422E-1,-1.688022614E-1,4.645538330E-2,2.294224936E-1
1.347678510E0,-1.852312833E-1,-2.034046650E-1,4.550743103E-2,2.788458577E-1
1.352683433E0,-1.832192093E-1,-2.000918388E-1,4.456996918E-2,2.749409114E-1
1.357688356E0,-2.800682187E-2,-1.591739655E-1,1.270294189E-2,1.621175440E-1
1.362693279E0,-2.685362101E-2,-1.562285423E-1,1.189136505E-2,1.589650243E-1
1.367698126E0,-1.021850109E-1,-1.145493984E-1,1.113319397E-2,1.539067547E-1
1.372703054E0,-2.502153516E-1,-1.857049465E-1,5.551147461E-2,3.165052498E-1
1.377677284E0,-2.476848662E-1,-1.838154793E-1,5.494022369E-2,3.132959488E-1
1.382682131E0,-1.301361769E-1,-1.039237976E-1,5.409526825E-2,1.751053349E-1
1.387687059E0,-1.276503652E-1,-1.009933949E-1,5.325603485E-2,1.712614574E-1
1.392692059E0,-2.397529781E-1,-2.261757851E-2,9.456253052E-2,2.587182203E-1
1.397696895E0,-2.364768982E-1,-1.999354362E-2,9.378337860E-2,2.551791278E-1
1.402701818E0,-1.935359538E-1,-5.271959305E-2,9.228515625E-2,2.207987114E-1
1.407706515E0,-2.677686810E-1,-9.010839462E-2,9.099864960E-2,2.968170203E-1
1.412680977E0,-2.641928792E-1,-8.704185486E-2,9.010314941E-2,2.923914148E-1
1.417685900E0,-2.606544495E-1,-8.399152756E-2,8.921337128E-2,2.880179584E-1
1.422690746E0,-2.569295168E-1,-8.058428764E-2,8.823013306E-2,2.833569487E-1
1.427695669E0,-1.775888801E-1,-1.912333965E-1,9.499168396E-2,2.777254801E-1
1.432700587E0,-1.743248403E-1,-1.870024204E-1,9.381389618E-2,2.723235251E-1
1.437705510E0,-1.333593577E-1,-1.824302673E-1,9.255790710E-2,2.441976390E-1
1.442679741E0,-1.303660274E-1,-1.778903008E-1,9.131336212E-2,2.387014669E-1
1.447684650E0,-1.649801433E-1,-1.733179092E-1,7.505607605E-2,2.507807008E-1
1.452689496E0,-1.240615845E-1,-1.311378479E-1,7.389831543E-2,1.950624846E-1
1.457694419E0,-1.190984100E-1,-1.232385635E-1,7.175827026E-2,1.857994192E-1
1.462699333E0,-1.559663117E-1,-2.365565300E-1,1.192903519E-1,3.074323833E-1
1.467704256E0,-1.528847814E-1,-2.314243317E-1,1.179094315E-1,3.013861505E-1
1.472678505E0,-2.632065415E-1,-1.121094227E-1,1.167392731E-1,3.089891002E-1
1.477683429E0,-2.595637441E-1,-1.078886986E-1,1.155834198E-1,3.039289974E-1
1.482688275E0,-2.554608881E-1,-2.175505161E-1,8.412742615E-2,3.459276171E-1
1.487693203E0,-1.364411712E-1,-1.811146736E-2,8.213806152E-2,1.602837471E-1
1.492698126E0,-1.355526149E-1,-1.786518097E-2,8.205699921E-2,1.594585439E-1
1.497703064E0,-9.463340044E-2,-5.269050598E-2,3.999137878E-2,1.154602974E-1
1.502677295E0,-9.168930352E-2,-4.854917526E-2,3.888893127E-2,1.107984647E-1
1.507682218E0,-1.643414795E-1,3.205418587E-2,3.793716431E-2,1.716823263E-1
1.512687064E0,-1.609580517E-1,3.556013107E-2,3.698921204E-2,1.689385069E-1
1.517691987E0,-1.951399297E-1,1.235008240E-3,5.396747589E-2,2.024687775E-1
1.522696910E0,-3.948479891E-2,4.989862442E-3,5.297851562E-2,6.626213994E-2
1.527701851E0,-3.684912622E-2,8.718252182E-3,5.199718475E-2,6.432397101E-2
1.532706544E0,-3.420583904E-2,1.238226891E-2,2.598381042E-2,4.470479182E-2
1.537681005E0,-2.900505066E-2,1.939916611E-2,2.414321899E-2,4.243248323E-2
1.542685914E0,8.877784014E-3,1.929759979E-2,2.416992188E-2,3.217759360E-2
1.547690837E0,1.126936078E-2,2.272653580E-2,2.327632904E-2,3.442791622E-2
1.552695698E0,-6.271016598E-2,-5.019450188E-2,4.532623291E-2,9.223079922E-2
1.557700622E0,-2.108894289E-2,2.990388870E-2,4.450225830E-2,5.761455602E-2
1.562705545E0,-1.848731935E-2,3.302979469E-2,4.368495941E-2,5.780245663E-2
1.567679699E0,-1.590117812E-2,-2.598047256E-3,4.281044006E-2,4.574200579E-2
1.572684622E0,-1.331861317E-2,6.713867188E-4,2.963066101E-3,1.366074587E-2
1.577689545E0,-1.088955998E-2,-1.482949257E-1,1.932144165E-3,1.487067607E-1
1.582694237E0,-8.479937911E-3,-1.442899704E-1,9.117126465E-4,1.445418144E-1
1.587699405E0,-6.078273058E-3,5.034756660E-2,1.912784576E-2,5.420052906E-2
1.592704097E0,3.386530280E-2,-6.091570854E-2,1.820755005E-2,7.203538825E-2
1.597709020E0,3.564991057E-2,-5.757951736E-2,1.736640930E-2,6.991358320E-2
1.602683473E0,3.749291599E-2,2.091717720E-2,1.670551300E-2,4.606865763E-2
1.607688396E0,3.930683434E-2,2.347660065E-2,1.605415344E-2,4.851715002E-2
1.612693304E0,-1.106353924E-1,-1.257719994E-1,1.509761810E-2,1.681865748E-1
1.617698227E0,-1.079368070E-1,-1.222822666E-1,1.420974731E-2,1.637230098E-1
1.622703087E0,-2.806343138E-2,-7.851433754E-2,7.878398895E-2,1.147125725E-1
1.627677318E0,-2.786755562E-2,-7.788491249E-2,7.862854004E-2,1.141275933E-1
1.632682261E0,-1.014466360E-1,-3.604722023E-2,7.790851593E-2,1.328930356E-1
1.637687107E0,-2.209378779E-2,6.822109222E-3,7.667732239E-2,8.008800411E-2
1.642692030E0,-2.190461755E-2,6.801366806E-3,1.772880554E-2,2.898933263E-2
1.647696967E0,1.807898283E-2,-6.649184227E-2,1.683712006E-2,7.093309045E-2
1.652701891E0,1.807898283E-2,-6.649184227E-2,1.683712006E-2,7.093309045E-2
1.657706593E0,-1.804532111E-2,-9.733295441E-2,8.210849762E-2,1.286123750E-1
1.662681054E0,-1.791803539E-2,-9.657645226E-2,8.192539215E-2,1.279055785E-1
1.667685978E0,5.953194201E-2,-9.369659424E-2,8.123111725E-2,1.375558007E-1
1.672690886E0,2.234168351E-2,-5.298018456E-2,8.059597015E-2,9.900384428E-2
1.677695732E0,2.274501324E-2,-5.041790009E-2,2.298069000E-2,5.989501139E-2
1.682700655E0,2.316045761E-2,-9.224176407E-3,2.245330811E-2,3.355060763E-2
1.687705573E0,2.357107401E-2,-7.048845291E-3,2.193069458E-2,3.295811152E-2
1.692679804E0,6.168977916E-2,1.092205048E-1,2.160263062E-2,1.272848033E-1
1.697684708E0,6.203004718E-2,1.106758118E-1,7.525253296E-2,1.475120530E-1
1.702689554E0,-1.491995156E-2,3.372573853E-2,7.525253296E-2,8.380318676E-2
1.707694477E0,2.480866015E-2,-7.654261589E-2,7.410907745E-2,1.093910281E-1
1.712699386E0,2.507081628E-2,-7.383966446E-2,5.846595764E-2,9.746337814E-2
1.717704078E0,6.291793287E-2,-7.112431526E-2,5.782508850E-2,1.111803731E-1
1.722678540E0,6.281419098E-2,-6.842875481E-2,5.718994141E-2,1.090816505E-1
1.727683458E0,1.770256311E-1,1.079440117E-2,5.670070648E-2,1.861976457E-1
1.732688304E0,1.761899143E-1,1.291847229E-2,5.621242523E-2,1.853904248E-1
1.737693256E0,6.099836528E-2,-2.362990379E-2,5.563735962E-2,8.587600774E-2
1.742698256E0,6.087341905E-2,1.754236221E-2,5.512809753E-2,8.397865655E-2
1.747703082E0,6.074768305E-2,1.969957352E-2,5.462360382E-2,8.403625579E-2
1.752677312E0,6.067527831E-2,1.739742756E-1,5.432510376E-2,1.920930891E-1
1.757682235E0,6.060637534E-2,1.752183437E-1,5.403518677E-2,1.931175863E-1
1.762687159E0,6.042093039E-2,1.387350559E-1,5.365943909E-2,1.605535424E-1
1.767692005E0,6.015175581E-2,1.400935650E-1,4.293441772E-3,1.525217175E-1
1.772696924E0,2.222076058E-2,1.414353848E-1,3.979682922E-3,1.432255848E-1
1.777701847E0,2.209392190E-2,1.429393291E-1,3.628730774E-3,1.446822757E-1
1.782706524E0,9.750409424E-2,3.045082092E-2,4.807472229E-2,1.128958804E-1
1.787711678E0,5.901347101E-2,-5.892515182E-3,4.746055603E-2,7.595930407E-2
1.792685909E0,5.862571299E-2,-3.255367279E-3,4.685115814E-2,7.511725940E-2
1.797690837E0,5.811755359E-2,3.815221786E-2,4.629802704E-2,8.352693620E-2
1.802695760E0,5.758000910E-2,4.051733017E-2,2.970600128E-2,7.641700076E-2
1.807700587E0,1.336184591E-1,8.057022095E-2,2.923297882E-2,1.587451422E-1
1.812705510E0,1.325640529E-1,8.265805244E-2,2.876281738E-2,1.588486117E-1
1.817679741E0,1.314766258E-1,4.702734947E-2,2.824115753E-2,1.424613551E-1
1.822684572E0,1.300644130E-1,1.043152809E-2,-8.295059204E-3,1.307454638E-1
1.827689495E0,1.286660880E-1,1.282906532E-2,-8.830070496E-3,1.296052362E-1
1.832694399E0,8.871661127E-2,-2.257657051E-2,-9.438514709E-3,9.202947468E-2
1.837699322E0,8.766132593E-2,-1.760601997E-2,5.453109741E-2,1.047287954E-1
1.842704015E0,4.921448231E-2,-1.740002632E-2,5.448818207E-2,7.545719429E-2
1.847678462E0,4.865472019E-2,-1.483964920E-2,5.390739441E-2,7.411817697E-2
1.852683385E0,4.811732471E-2,2.552843094E-2,5.339431763E-2,7.627536220E-2
1.857688305E0,4.748246074E-2,1.038272381E-1,-9.905815125E-3,1.145984495E-1
1.862693228E0,4.685360193E-2,1.051652431E-1,-1.020336151E-2,1.155815598E-1
1.867698151E0,-3.007316589E-2,1.829738617E-1,-1.040077209E-2,1.857202343E-1
1.872702997E0,-3.009274602E-2,1.841783524E-1,4.332351685E-2,1.915833133E-1
1.877677228E0,4.638232291E-2,2.231698036E-1,4.312610626E-2,2.319826333E-1
1.882682074E0,4.570734501E-2,2.261633873E-1,4.245090485E-2,2.346084365E-1
1.887686997E0,1.219775528E-1,7.275366783E-2,4.255771637E-2,1.482659057E-1
1.892691920E0,1.209772974E-1,1.121745110E-1,4.118633270E-2,1.700439396E-1
1.897696838E0,1.198062003E-1,1.154782772E-1,4.045009613E-2,1.712453456E-1
1.902701761E0,1.565680951E-1,1.545350552E-1,4.021549225E-2,2.236334892E-1
1.907706466E0,1.553799808E-1,1.556251049E-1,3.803443909E-2,2.231786958E-1
1.912680928E0,1.919111758E-1,1.567001343E-1,3.781318665E-2,2.506285470E-1
1.917685851E0,1.904546916E-1,1.576375961E-1,3.762245178E-2,2.500760887E-1
1.922690702E0,7.480235398E-2,8.309388161E-2,3.732490540E-2,1.178691388E-1
1.927695625E0,7.409106195E-2,8.449864388E-2,5.501747131E-2,1.251256506E-1
1.932700525E0,1.124091446E-1,1.595375538E-1,5.522441864E-2,2.028245135E-1
1.937705218E0,3.468516469E-2,8.492231369E-2,5.494213104E-2,1.069275352E-1
1.942679679E0,3.366538882E-2,8.792829514E-2,5.427646637E-2,1.086769446E-1
1.947684606E0,3.338460624E-2,4.855322838E-2,1.026630402E-2,5.981090969E-2
1.952689453E0,3.204838932E-2,5.159902573E-2,9.596824646E-3,6.149518483E-2
1.957694376E0,6.890642643E-2,5.289840698E-2,9.323120117E-3,8.736851626E-2
1.962699299E0,6.834550202E-2,5.250740051E-2,1.242065430E-2,8.707701998E-2
1.967704222E0,1.056851000E-1,-2.162432671E-2,1.201248169E-2,1.085414740E-1
1.972678453E0,6.556522846E-2,1.698765755E-1,1.190757751E-2,1.824791508E-1
1.977683376E0,6.361196935E-2,1.720595360E-1,1.144695282E-2,1.837988011E-1
1.982688222E0,1.771620810E-1,-1.868414879E-2,3.842449188E-2,1.822414386E-1
1.987693213E0,1.749845296E-1,-1.684522629E-2,3.804588318E-2,1.798633828E-1
1.992698059E0,1.728786379E-1,2.265882492E-2,3.773307800E-2,1.783934723E-1
1.997702987E0,1.705276221E-1,2.404308319E-2,6.562232971E-3,1.723392081E-1
2.002677218E0,5.435022712E-2,1.019465923E-1,6.403923035E-3,1.157068067E-1
2.007682141E0,9.178407490E-2,1.027410030E-1,6.253242493E-3,1.379098733E-1
2.012687083E0,9.022624791E-2,1.035389900E-1,6.103515625E-3,1.374712740E-1
2.017691929E0,8.902791142E-2,1.794648170E-1,2.201938629E-2,2.015401770E-1
2.022696852E0,8.723254502E-2,1.806440353E-1,2.178764343E-2,2.017832645E-1
2.027701775E0,1.242851019E-1,1.040577888E-1,2.195930481E-2,1.635757349E-1
2.032706699E0,1.226832122E-1,1.044003963E-1,1.239776611E-5,1.610919410E-1
2.037680929E0,1.212259233E-1,1.421918869E-1,7.534027100E-5,1.868535867E-1
2.042685847E0,1.197326928E-1,1.043179035E-1,8.773803711E-5,1.588022368E-1
2.047690771E0,1.182488203E-1,1.043987274E-1,9.822845459E-5,1.577399361E-1
2.052695631E0,1.546839327E-1,2.811598778E-2,6.789493561E-2,1.712522995E-1
2.057700554E0,1.529541910E-1,2.907037735E-2,6.771373749E-2,1.697799211E-1
2.062705477E0,1.135477275E-1,6.789016724E-2,6.758022308E-2,1.485572205E-1
2.067679713E0,1.120995730E-1,6.860518456E-2,6.744956970E-2,1.477241689E-1
2.072684559E0,7.293082774E-2,-6.272554398E-3,7.216072083E-2,1.027882299E-1
2.077689496E0,3.278480470E-2,7.050824165E-2,7.201957703E-2,1.059862021E-1
2.082694188E0,3.164549172E-2,7.123422623E-2,7.188034058E-2,1.060308233E-1
2.087699111E0,6.830711663E-2,3.513932228E-2,7.252883911E-2,1.056459495E-1
2.092704034E0,6.788122654E-2,3.502559662E-2,7.256221771E-2,1.053561995E-1
2.097708957E0,1.040935963E-1,1.125900745E-1,7.249450684E-2,1.696097144E-1
2.102683429E0,1.023655981E-1,1.130504608E-1,7.242774963E-2,1.688339459E-1
2.107688352E0,2.415937185E-2,7.469964027E-2,6.735897064E-2,1.034453596E-1
2.112693198E0,2.290630341E-2,7.534790039E-2,6.723976135E-2,1.035528384E-1
2.117698121E0,6.024853885E-2,3.810238838E-2,6.708431244E-2,9.788760601E-2
2.122703025E0,5.859455466E-2,-3.749322891E-2,7.971763611E-2,1.058015385E-1
2.127677256E0,5.695080757E-2,-3.614807129E-2,7.945251465E-2,1.042246594E-1
2.132682106E0,9.177216887E-2,4.928112030E-3,7.905769348E-2,1.212292711E-1
2.137687029E0,9.119305015E-2,5.009651184E-3,7.905197144E-2,1.207910725E-1
2.142691953E0,5.154982209E-2,4.384851456E-2,7.994174957E-2,1.047413944E-1
2.147696886E0,4.986648262E-2,4.473161697E-2,7.978153229E-2,1.041761803E-1
2.152701578E0,4.817318916E-2,-3.086042404E-2,7.951736450E-2,9.795934454E-2
2.157706501E0,8.397369087E-2,-6.700491905E-2,3.011417389E-2,1.115710688E-1
2.162680963E0,8.184391260E-2,-6.521630287E-2,2.976417542E-2,1.088002681E-1
2.167685809E0,1.172873825E-1,-1.011672020E-1,2.934455872E-2,1.576459196E-1
2.172690737E0,1.147986352E-1,-9.903573990E-2,2.892971039E-2,1.543493848E-1
2.177695660E0,1.125699282E-1,-9.689760208E-2,5.655860901E-2,1.589339809E-1
2.182700352E0,1.103580296E-1,-9.477615356E-2,5.614089966E-2,1.559269528E-1
2.187705530E0,7.054312527E-2,-1.719689369E-2,5.584716797E-2,9.160224804E-2
2.192679761E0,1.063742191E-1,-1.567840576E-2,5.556201935E-2,1.210306774E-1
2.197684684E0,1.043654382E-1,-1.402497292E-2,6.124591827E-2,1.218191572E-1
2.202689530E0,6.465567648E-2,-5.005550385E-2,6.086540222E-2,1.019338371E-1
2.207694453E0,6.290824711E-2,-4.815077782E-2,6.048774719E-2,9.967302804E-2
2.212699371E0,2.350899577E-2,3.015899658E-2,5.827426910E-2,6.970027544E-2
2.217704294E0,2.215224504E-2,3.166198730E-2,5.797767639E-2,6.967506269E-2
2.222678525E0,5.848246813E-2,-5.584239960E-3,5.763149261E-2,8.229685143E-2
2.227683448E0,1.920318604E-2,3.488612175E-2,5.734157562E-2,6.981303703E-2
2.232688371E0,1.672869921E-2,3.810095787E-2,3.464889526E-2,5.414866860E-2
2.237693218E0,5.314710736E-2,3.968167305E-2,3.434181213E-2,7.469009478E-2
2.242698141E0,5.275884271E-2,3.945374489E-2,3.440189362E-2,7.432081642E-2
2.247703064E0,1.360821724E-2,4.112195969E-2,8.806705475E-2,9.814278006E-2
2.252677276E0,1.241490245E-2,4.277968407E-2,8.773422241E-2,9.839474048E-2
2.257682199E0,1.123002172E-2,-3.206491470E-2,8.730411530E-2,9.368180555E-2
2.262687122E0,1.012402773E-2,-2.980995178E-2,8.684062958E-2,9.237112161E-2
2.267691958E0,-2.972018719E-2,-6.541991234E-2,9.231758118E-2,1.169854275E-1
2.272696881E0,8.188605309E-3,-2.509498596E-2,9.186077118E-2,9.557830747E-2
2.277701809E0,7.207840681E-3,-2.277517319E-2,9.138107300E-2,9.445190302E-2
2.282706501E0,6.234019995E-3,-2.046918869E-2,9.285449982E-2,9.528803087E-2
2.287711424E0,5.266577005E-3,-1.817774773E-2,9.238147736E-2,9.430007797E-2
2.292685886E0,1.184857786E-1,-1.590156555E-2,9.193229675E-2,1.508087753E-1
2.297690732E0,1.178498268E-1,-1.545262337E-2,9.185314178E-2,1.502143965E-1
2.302695650E0,1.170148253E-1,-1.504421234E-2,3.388690948E-2,1.227481988E-1
2.307700573E0,1.162334681E-1,-5.219483376E-2,3.370189667E-2,1.317965766E-1
2.312705510E0,1.152731776E-1,-5.171489716E-2,3.362464905E-2,1.307400210E-1
2.317710434E0,1.141506732E-1,2.432966232E-2,3.260707855E-2,1.211838695E-1
2.322684587E0,1.130366325E-1,2.432394028E-2,3.263950348E-2,1.201427133E-1
2.327689510E0,3.555095196E-2,-1.334881783E-2,3.259468079E-2,5.004472338E-2
2.332694434E0,3.480735421E-2,-1.286935806E-2,3.251171112E-2,4.933744667E-2
2.337699348E0,-3.111094236E-3,-5.049800873E-2,3.645801544E-2,6.236116326E-2
2.342704040E0,7.198905945E-2,-4.983139038E-2,3.633594513E-2,9.479395052E-2
2.347678502E0,7.119631767E-2,-4.917097092E-2,3.621482849E-2,9.379879441E-2
2.352683409E0,1.091006994E-1,-4.852414131E-2,3.610610962E-2,1.247445632E-1
2.357688332E0,1.082252860E-1,-4.786038399E-2,3.886222839E-3,1.183994578E-1
2.362693255E0,3.117936850E-2,-1.236240864E-1,3.632545471E-3,1.275471017E-1
2.367698101E0,3.108447790E-2,-1.224482059E-1,3.379821777E-3,1.263773362E-1
2.372703024E0,-6.644815207E-3,-4.489398003E-2,9.924316406E-2,1.091275796E-1
2.377677255E0,-8.343186975E-2,-1.207814217E-1,9.900474548E-2,1.770620466E-1
2.382682101E0,-8.311900496E-2,-1.197259426E-1,9.876728058E-2,1.760626196E-1
2.387687024E0,3.147545457E-2,-1.186811924E-1,9.855461121E-2,1.574450414E-1
2.392691933E0,3.094270825E-2,-1.175396442E-1,1.042270660E-2,1.219903766E-1
2.397696856E0,1.446187198E-1,-1.540521383E-1,1.015186310E-2,2.115412389E-1
2.402701779E0,1.432574391E-1,-1.526273489E-1,9.882926941E-3,2.095601912E-1
2.407706711E0,1.041738391E-1,-1.511882544E-1,5.850124359E-2,1.926978788E-1
2.412680942E0,6.435826421E-2,-1.495915651E-1,5.818080902E-2,1.729295494E-1
2.417685865E0,6.377074122E-2,-1.483529806E-1,5.793094635E-2,1.715555561E-1
2.422690803E0,-5.074769258E-2,-3.313422203E-2,5.785179138E-2,8.378564757E-2
2.427695650E0,-5.043700337E-2,-3.283405304E-2,5.582809448E-2,8.208984396E-2
2.432700573E0,2.623593807E-2,-1.088864803E-1,5.564308167E-2,1.250629545E-1
2.437705496E0,2.575749159E-2,-1.079001427E-1,5.544567108E-2,1.240165779E-1
2.442679727E0,2.528294921E-2,-1.069223881E-1,5.524921417E-2,1.229800807E-1
2.447684683E0,2.481767535E-2,-1.059625149E-1,5.805492401E-2,1.233464461E-1
2.452689529E0,-1.330325007E-2,-1.426271200E-1,5.778408051E-2,1.544618781E-1
2.457694452E0,-5.180326104E-2,-1.039354801E-1,5.761051178E-2,1.296346132E-1
2.462699394E0,-5.136647820E-2,-1.032857895E-1,9.840869904E-2,1.516269812E-1
2.467704317E0,-5.092391372E-2,-1.403223276E-1,9.819889069E-2,1.786802248E-1
2.472678563E0,-5.048421025E-2,-1.394141912E-1,9.799194336E-2,1.777284253E-1
2.477683486E0,2.635070682E-2,-2.902745008E-1,9.753704071E-2,3.073550388E-1
2.482688332E0,2.606612444E-2,-2.880369425E-1,1.101160049E-1,3.094677005E-1
2.487693236E0,2.578350902E-2,-2.858153582E-1,1.096496582E-1,3.072104423E-1
2.492698159E0,2.550673485E-2,-2.083252668E-1,1.093187332E-1,2.366444501E-1
2.497703081E0,2.518802881E-2,-2.068518400E-1,8.696365356E-2,2.257981345E-1
2.502677312E0,6.254443526E-2,-2.053972483E-1,8.667087555E-2,2.315419544E-1
2.507682235E0,6.195610762E-2,-2.039524317E-1,8.638000488E-2,2.299927366E-1
2.512687081E0,6.123977900E-2,-3.914160728E-1,8.565902710E-2,4.053323594E-1
2.517692004E0,6.057795882E-2,-3.879818916E-1,9.994983673E-2,4.052031678E-1
2.522696928E0,1.742146015E-1,-2.706972361E-1,9.951782227E-2,3.369443840E-1
2.527701823E0,1.351547241E-1,-2.308295965E-1,9.914493561E-2,2.852697326E-1
2.532706515E0,1.340309083E-1,-2.289382219E-1,9.877777100E-2,2.830795681E-1
2.537680977E0,9.510973096E-2,-3.034079075E-1,9.827804565E-2,3.328074421E-1
2.542685900E0,9.418508410E-2,-3.008294106E-1,9.776115417E-2,3.300400091E-1
2.547690823E0,1.690275371E-1,-2.598770857E-1,9.738540649E-2,3.249466500E-1
2.552695668E0,1.679554582E-1,-2.580651045E-1,1.171360016E-1,3.294350876E-1
2.557700591E0,1.667954028E-1,-3.327429295E-1,1.166620255E-1,3.900622920E-1
2.562705514E0,1.401212811E-2,-4.067382812E-1,1.160335541E-1,4.231975364E-1
2.567679761E0,1.391142607E-2,-4.035835266E-1,1.153755188E-1,4.199817866E-1
2.572684607E0,9.017372131E-2,-3.613963127E-1,7.962799072E-2,3.808926512E-1
2.577689535E0,8.913576603E-2,-3.580281734E-1,7.895565033E-2,3.773106843E-1
2.582694227E0,8.804330230E-2,-3.930766582E-1,7.816410065E-2,4.103297564E-1
2.587699395E0,8.703827858E-2,-3.894847631E-1,8.554744720E-2,4.081573329E-1
2.592704088E0,4.741209745E-2,-2.721633911E-1,8.509445190E-2,2.890707252E-1
2.597709011E0,4.719460011E-2,-2.699471712E-1,8.464050293E-2,2.868149582E-1
2.602683477E0,9.458780289E-3,-3.429245949E-1,8.399677277E-2,3.531886240E-1
2.607688400E0,-2.823543549E-2,-4.160784483E-1,9.115123749E-2,4.268806192E-1
2.612693308E0,-2.788150311E-2,-4.122997522E-1,9.035968781E-2,4.230051266E-1
2.617698155E0,4.751279950E-2,-3.709723949E-1,8.967876434E-2,3.846040363E-1
2.622703078E0,4.710662365E-2,-3.682414293E-1,1.401281357E-1,3.968081132E-1
2.627677308E0,9.000003338E-3,-3.655157089E-1,1.395730972E-1,3.913609370E-1
2.632682252E0,8.845031261E-3,-3.628071547E-1,1.390209198E-1,3.886310361E-1
2.637687098E0,8.645832539E-3,-2.837570906E-1,1.385965347E-1,3.159142863E-1
2.642692021E0,-2.927055955E-2,-3.196924925E-1,1.381816864E-1,3.495056993E-1
2.647696920E0,-2.923688293E-2,-3.176890612E-1,1.377716064E-1,3.475084898E-1
2.652701843E0,8.490988612E-2,-2.780663967E-1,1.374530792E-1,3.215959557E-1
2.657706539E0,8.416602015E-2,-2.757558823E-1,8.600425720E-2,3.008686720E-1
2.662681232E0,8.337229490E-2,-3.496204615E-1,8.539867401E-2,3.694297500E-1
2.667685924E0,8.258655667E-2,-3.465634584E-1,8.480167389E-2,3.662213729E-1
2.672690770E0,5.434185266E-3,-4.184781313E-1,8.396720886E-2,4.268535685E-1
2.677695693E0,5.463272333E-3,-3.397077322E-1,8.641433716E-2,3.505690065E-1
2.682700385E0,5.563080311E-3,-3.371642828E-1,8.589553833E-2,3.479780812E-1
2.687705328E0,4.314363003E-2,-3.718719482E-1,8.525180817E-2,3.839505040E-1
2.692679789E0,4.284816980E-2,-3.688119650E-1,8.464336395E-2,3.808185004E-1
2.697684636E0,8.117407560E-2,-4.036065340E-1,8.999729156E-2,4.214106991E-1
2.702689559E0,8.054700494E-2,-3.999979496E-1,8.929061890E-2,4.176828873E-1
2.707694482E0,7.983946800E-2,-4.722557068E-1,8.837127686E-2,4.870413492E-1
2.712699391E0,4.041486979E-2,-4.285999537E-1,7.740211487E-2,4.374041259E-1
2.717704083E0,4.004830122E-2,-4.239845276E-1,7.649230957E-2,4.326867452E-1
2.722678544E0,7.835653424E-2,-4.584686756E-1,7.561302185E-2,4.712224550E-1
2.727683482E0,7.767233253E-2,-4.540029764E-1,7.474708557E-2,4.666249250E-1
2.732688328E0,1.527818441E-1,-4.509756565E-1,1.611766815E-1,5.026920104E-1
2.737693247E0,1.514876485E-1,-4.423358440E-1,1.595087051E-1,4.940167341E-1
2.742698170E0,-3.958180547E-2,-3.949712515E-1,1.578674316E-1,4.271898112E-1
2.747703107E0,-1.160321236E-1,-3.103276491E-1,7.321262360E-2,3.393033919E-1
2.752677338E0,-1.157648563E-1,-2.960222960E-1,7.041931152E-2,3.255604108E-1
2.757682261E0,-7.690790296E-2,-3.681595325E-1,6.963634491E-2,3.824990032E-1
2.762687082E0,-7.656148076E-2,-3.587030172E-1,6.780052185E-2,3.729965491E-1
2.767692005E0,-7.626953721E-2,-3.495779037E-1,6.408882141E-2,3.634957085E-1
2.772696923E0,-7.606479526E-2,-3.405636549E-1,6.236076355E-2,3.544831744E-1
2.777701846E0,-7.591676712E-2,-2.943339348E-1,6.078243256E-2,3.099843945E-1
2.782706520E0,-7.577171922E-2,-2.861354351E-1,5.922698975E-2,3.018653292E-1
2.787711443E0,6.020963192E-4,-2.404621840E-1,5.781841278E-2,2.473163830E-1
2.792685904E0,-3.766474128E-2,-2.705663443E-1,5.632877350E-2,2.789224088E-1
2.797690808E0,-3.793457150E-2,-2.628562450E-1,5.489826202E-2,2.711941306E-1
2.802695731E0,3.647115827E-2,-4.412467480E-1,1.313219070E-1,4.618162852E-1
2.807700578E0,3.623905778E-2,-4.382480383E-1,1.307754517E-1,4.587775399E-1
2.812705501E0,-2.363324165E-3,-3.535158634E-1,1.293907166E-1,3.764585084E-1
2.817710424E0,-2.970218658E-3,-3.461327553E-1,1.310558319E-1,3.701247594E-1
2.822684578E0,7.291337848E-2,-2.623994350E-1,1.298522949E-1,3.017141740E-1
2.827689501E0,-4.628419876E-3,-2.556730509E-1,1.286487579E-1,2.862527452E-1
2.832694395E0,-5.861252546E-3,-2.438607216E-1,1.265535355E-1,2.748057553E-1
2.837699318E0,-8.295404911E-2,-2.373491526E-1,1.394872665E-1,2.875285934E-1
2.842704010E0,-8.244776726E-2,-2.358459234E-1,1.392011642E-1,2.860033182E-1
2.847678467E0,7.045555115E-2,-2.681629658E-1,1.380376816E-1,3.097253016E-1
2.852683390E0,6.939440966E-2,-2.615562677E-1,1.368942261E-1,3.032610994E-1
2.857688308E0,2.976781130E-2,-2.161926031E-1,1.336851120E-1,2.559239602E-1
2.862693231E0,-8.580446243E-3,-2.098600864E-1,1.325778961E-1,2.483782971E-1
2.867698077E0,-8.976042271E-3,-2.035627365E-1,1.314821243E-1,2.424992908E-1
2.872702995E0,-4.742309451E-2,-1.546236277E-1,1.265716553E-1,2.053723449E-1
2.877677226E0,-4.739943147E-2,-1.486690044E-1,1.255321503E-1,2.002685690E-1
2.882682072E0,-4.709547758E-2,-1.853907108E-1,1.253089905E-1,2.286701615E-1
2.887686961E0,-4.734432697E-2,-1.742668152E-1,1.233892441E-1,2.187128568E-1
2.892691884E0,2.821341157E-2,-2.444530725E-1,8.323478699E-2,2.597716902E-1
2.897696822E0,-8.605113626E-2,-2.049514055E-1,8.294773102E-2,2.372555642E-1
2.902701746E0,-8.551433682E-2,-1.985675097E-1,8.183479309E-2,2.311681013E-1
2.907706467E0,2.905264497E-2,-2.674683332E-1,6.367492676E-2,2.764739803E-1
2.912680928E0,2.862870693E-2,-2.555295229E-1,6.166267395E-2,2.644186553E-1
2.917685775E0,-4.693537951E-2,-1.733304262E-1,6.061363220E-2,1.895267235E-1
2.922690712E0,-4.656130075E-2,-1.719298363E-1,6.036567688E-2,1.880740234E-1
2.927695635E0,-8.494615555E-2,-2.802599669E-1,1.031665802E-1,3.104912907E-1
2.932700577E0,-8.438333869E-2,-2.735898495E-1,1.020336151E-1,3.039454099E-1
2.937705269E0,-8.372971416E-2,-2.284438610E-1,1.009874344E-1,2.634306827E-1
2.942679731E0,-4.427346587E-2,-2.178469896E-1,9.921741486E-2,2.434369448E-1
2.947684568E0,-4.391223192E-2,-2.160568237E-1,6.201076508E-2,2.290287540E-1
2.952689491E0,-5.892962217E-3,-2.859821320E-1,6.085205078E-2,2.924439756E-1
2.957694414E0,-5.743324757E-3,-2.791718245E-1,5.973148346E-2,2.855481456E-1
2.962699346E0,-8.192959428E-2,-1.962307692E-1,5.962944031E-2,2.208498208E-1
2.967704269E0,-8.117309213E-2,-1.902879477E-1,5.863952637E-2,2.150282957E-1
2.972678495E0,-4.090815783E-3,-2.981278896E-1,5.749320984E-2,3.036485510E-1
2.977683418E0,-4.153960943E-2,-2.493122816E-1,5.572891235E-2,2.588201394E-1
2.982688264E0,-4.122763872E-2,-2.474368811E-1,8.151817322E-2,2.637611436E-1
2.987693206E0,3.453373909E-2,-2.413136959E-1,8.054542542E-2,2.567341904E-1
2.992698129E0,3.446072340E-2,-2.308691740E-1,7.888793945E-2,2.463968830E-1
2.997703068E0,-4.100662470E-2,-1.483360529E-1,5.999183655E-2,1.651791401E-1
3.002677298E0,-4.057806730E-2,-1.428216696E-1,5.910968781E-2,1.598078973E-1
3.007682221E0,-4.024523497E-2,-2.179607153E-1,5.881404877E-2,2.293156006E-1
3.012687149E0,-2.204298973E-3,-2.880147696E-1,5.773067474E-2,2.937519314E-1
3.017691996E0,-2.034991980E-3,-2.816649675E-1,1.236362457E-1,3.076121200E-1
3.022696919E0,-7.833388448E-2,-2.753416300E-1,1.226339340E-1,3.114294341E-1
3.027701837E0,-7.768607140E-2,-2.690557241E-1,1.216411591E-1,3.053238935E-1
3.032706760E0,-3.828597069E-2,-1.861139536E-1,6.175613403E-2,1.997949933E-1
3.037680991E0,-3.775584698E-2,-1.799997091E-1,6.080245972E-2,1.937068362E-1
3.042685923E0,-2.277169228E-1,-1.739419699E-1,5.981349945E-2,2.927259136E-1
3.047690846E0,-1.492777020E-1,-2.441369295E-1,5.874061584E-2,2.921252002E-1
3.052695692E0,-1.481402665E-1,-2.378989458E-1,1.218128204E-1,3.055811025E-1
3.057700615E0,-1.087491810E-1,-1.502989531E-1,1.201667786E-1,2.210344189E-1
3.062705538E0,-1.080789268E-1,-1.493086815E-1,1.199970245E-1,2.199395887E-1
3.067679769E0,-6.914865971E-2,-2.199901342E-1,1.190357208E-1,2.595124258E-1
3.072684615E0,-6.835976243E-2,-2.137956619E-1,1.200399399E-1,2.545412134E-1
3.077689524E0,-6.741228700E-2,-1.310374737E-1,1.191511154E-1,1.895052090E-1
3.082694447E0,-1.043204665E-1,-2.017155886E-1,1.181898117E-1,2.560093162E-1
3.087699370E0,-1.023361981E-1,-1.900733709E-1,4.247283936E-2,2.200102858E-1
3.092704063E0,-1.391497701E-1,-1.121573448E-1,4.229831696E-2,1.836602193E-1
3.097708986E0,-1.367242187E-1,-1.011883020E-1,4.063224792E-2,1.748815714E-1
3.102683447E0,-6.015610695E-2,-1.379314661E-1,4.044246674E-2,1.558186114E-1
3.107688351E0,-5.912530422E-2,-1.320104599E-1,9.745788574E-2,1.744150298E-1
3.112693198E0,-1.724291891E-1,-1.260924339E-1,9.655666351E-2,2.344233700E-1
3.117698121E0,-1.705523282E-1,-1.201180220E-1,9.564781189E-2,2.294884306E-1
3.122703044E0,2.201375365E-2,-1.526309252E-1,3.680801392E-2,1.585422170E-1
3.127677275E0,-5.369678140E-2,-1.461813450E-1,3.585815430E-2,1.598065618E-1
3.132682106E0,-5.247145891E-2,-1.398214102E-1,3.492641449E-2,1.533725372E-1
3.137687029E0,6.262922287E-2,-1.335171461E-1,3.403663635E-2,1.513530326E-1
3.142691952E0,6.307151914E-2,-1.273338795E-1,5.506038666E-2,1.523928462E-1
3.147696875E0,-1.182037592E-2,-8.249509335E-2,5.422019958E-2,9.942329584E-2
3.152701567E0,-1.084014773E-2,-7.669866085E-2,5.338954926E-2,9.407782602E-2
3.157706485E0,6.572207808E-2,-3.332614899E-2,1.046733856E-1,1.280099270E-1
3.162680947E0,-4.782083631E-2,-1.799600124E-1,1.037607193E-1,2.131636116E-1
3.167685793E0,-4.647591710E-2,-1.736645699E-1,1.028633118E-1,2.071237664E-1
3.172690716E0,-6.398022175E-3,-9.182631969E-2,1.020469666E-1,1.374284943E-1
3.177695639E0,-5.258947611E-3,-8.617365360E-2,6.029891968E-2,1.053067653E-1
3.182700562E0,7.123291492E-2,-8.056664467E-2,5.952739716E-2,1.229171404E-1
3.187705491E0,7.292082906E-2,-7.002127171E-2,5.806922913E-2,1.165867110E-1
3.192679721E0,-4.057833552E-2,-2.580499649E-2,5.733680725E-2,7.483320535E-2
3.197684607E0,-5.038976669E-4,1.684916019E-2,5.368423462E-2,5.626850948E-2
3.202689454E0,-4.898011684E-4,1.678133011E-2,5.369281769E-2,5.625630291E-2
3.207694377E0,-3.704911470E-2,-1.152908802E-2,5.235576630E-2,6.516657913E-2
3.212699304E0,-3.577089310E-2,-6.964921951E-3,3.567218781E-2,5.099580290E-2
3.217704227E0,4.084888101E-2,-8.334982395E-2,3.558826447E-2,9.941000352E-2
3.222678688E0,4.153904319E-2,-7.823848724E-2,3.490257263E-2,9.520999197E-2
3.227683381E0,5.609631538E-3,7.721066475E-3,3.369903564E-2,3.502438917E-2
3.232688304E0,4.318958521E-2,-6.879234314E-2,3.663349152E-2,8.910521559E-2
3.237693136E0,4.379549623E-2,-6.417214870E-2,3.602123260E-2,8.563667063E-2
3.242698136E0,6.746560335E-3,-9.721148014E-2,3.536701202E-2,1.036649096E-1
3.247702991E0,8.598417044E-3,-8.828985691E-2,3.912639618E-2,9.695311489E-2
3.252677222E0,4.616019130E-2,-1.638218164E-1,3.895664215E-2,1.746023218E-1
3.257682145E0,4.670169950E-2,-1.584032774E-1,3.825569153E-2,1.695173884E-1
3.262687073E0,1.613405347E-1,-1.158459187E-1,3.768444061E-2,2.021661744E-1
3.267691919E0,1.619633138E-1,-1.077132225E-1,6.169700623E-2,2.040607113E-1
3.272696865E0,8.891612291E-3,-1.823495626E-1,6.152248383E-2,1.926536784E-1
3.277701788E0,8.492171764E-2,-1.777385473E-1,6.094264984E-2,2.061957708E-1
3.282706496E0,8.489149809E-2,-1.728757620E-1,2.838993073E-2,1.946755858E-1
3.287711419E0,1.613544524E-1,-1.303807497E-1,2.786254883E-2,2.093101068E-1
3.292685880E0,1.612713039E-1,-1.230524778E-1,2.696132660E-2,2.046393386E-1
3.297690727E0,1.227569580E-1,-4.271149635E-2,2.655696869E-2,1.326605263E-1
3.302695650E0,1.225948930E-1,-3.939127922E-2,8.915424347E-2,1.566194745E-1
3.307700573E0,1.597255468E-1,-3.908276558E-2,8.914279938E-2,1.870458542E-1
3.312705515E0,1.596653461E-1,-3.279376030E-2,8.837890625E-2,1.854165164E-1
3.317710438E0,1.590373516E-1,-2.951502800E-2,8.589839935E-2,1.831462560E-1
3.322684669E0,1.201993525E-1,-2.926611900E-2,8.588790894E-2,1.506025331E-1
3.327689500E0,1.198042035E-1,-2.604579926E-2,8.550930023E-2,1.494766579E-1
3.332694423E0,1.573087573E-1,5.276274681E-2,8.519268036E-2,1.865147323E-1
3.337699110E0,1.562073529E-1,5.564665794E-2,3.792667389E-2,1.701050270E-1
3.342704033E0,1.550762951E-1,-1.374900341E-2,3.715991974E-2,1.600579646E-1
3.347678495E0,7.739096880E-2,-1.360976696E-2,3.715896606E-2,8.692166915E-2
3.352683418E0,7.637450099E-2,-6.789803505E-3,3.637504578E-2,8.486642321E-2
3.357688341E0,1.519216001E-1,3.445112705E-2,3.497791290E-2,1.596574681E-1
3.362693187E0,1.503795981E-1,3.771734238E-2,3.463459015E-2,1.588589824E-1
3.367698110E0,1.868988276E-1,-3.889942169E-2,3.463554382E-2,1.940205083E-1
3.372703033E0,1.848875284E-1,-3.510141373E-2,1.924324036E-2,1.891713766E-1
3.377677264E0,1.069890261E-1,7.447361946E-3,1.887893677E-2,1.088968739E-1
3.382682116E0,1.429597437E-1,1.094675064E-2,1.852989197E-2,1.445706629E-1
3.387687039E0,1.408428550E-1,1.443934441E-2,1.818275452E-2,1.427438861E-1
3.392691958E0,6.220591068E-2,-1.337307692E-1,2.471542358E-2,1.495471367E-1
3.397696881E0,6.021171808E-2,-1.289594173E-1,2.422046661E-2,1.443697105E-1
3.402701804E0,1.914554834E-2,-1.965807080E-1,2.323913574E-2,1.988732868E-1
3.407706530E0,1.754087210E-2,-1.913186908E-1,3.873538971E-2,1.959871273E-1
3.412680992E0,1.692859530E-1,-3.799974918E-2,3.873634338E-2,1.777701300E-1
3.417685915E0,1.271656752E-1,4.570066929E-2,3.809452057E-2,1.403953440E-1
3.422690847E0,1.262648702E-1,4.541003704E-2,3.815364838E-2,1.395012179E-1
3.427695693E0,1.594163179E-1,-2.436053753E-2,3.448963165E-2,1.649137135E-1
3.432700607E0,1.582080126E-1,-2.414834499E-2,3.450298309E-2,1.637173590E-1
3.437705530E0,1.937393546E-1,-5.849516392E-2,3.418827057E-2,2.052448771E-1
3.442679761E0,1.883184910E-1,-5.151844025E-2,3.357982635E-2,1.981050440E-1
3.447684697E0,1.085353792E-1,-1.001346111E-2,3.224086761E-2,1.136647328E-1
3.452689543E0,1.056474149E-1,-6.869673729E-3,3.198623657E-2,1.105969621E-1
3.457694466E0,1.027704477E-1,-4.155027866E-2,3.170204163E-2,1.152961839E-1
3.462699366E0,1.398875713E-1,-4.123675823E-2,9.169483185E-2,1.722699772E-1
3.467704289E0,1.349511147E-1,-3.486537933E-2,9.115695953E-2,1.665442563E-1
3.472678515E0,2.106672823E-1,3.279328346E-3,9.119319916E-2,2.295814832E-1
3.477683438E0,2.073999643E-1,6.324529648E-3,9.096908569E-2,2.265615136E-1
3.482688284E0,3.562648892E-1,-2.863562107E-2,8.881568909E-2,3.682837177E-1
3.487693180E0,3.521499932E-1,-2.551507950E-2,8.861732483E-2,3.640242674E-1
3.492698103E0,1.959286034E-1,1.545667648E-2,8.841705322E-2,2.155098647E-1
3.497703026E0,3.068508804E-1,-5.721914768E-2,5.414676666E-2,3.168017771E-1
3.502677257E0,3.027491868E-1,-5.386805534E-2,5.393123627E-2,3.121977189E-1
3.507682180E0,2.988107502E-1,1.014488935E-1,5.382347107E-2,3.201198346E-1
3.512687035E0,2.927886248E-1,1.068046093E-1,5.346870422E-2,3.162140188E-1
3.517691958E0,2.501894534E-1,1.469738483E-1,6.731510162E-2,2.978714447E-1
3.522696881E0,2.466098666E-1,1.491779089E-1,6.721305847E-2,2.959528173E-1
3.527701809E0,2.074037790E-1,1.483190060E-1,6.735134125E-2,2.637253462E-1
3.532706501E0,2.040302157E-1,1.127396822E-1,6.422710419E-2,2.417926504E-1
3.537680963E0,1.984688342E-1,1.182417870E-1,6.385612488E-2,2.396843821E-1
3.542685886E0,2.348949909E-1,3.221511841E-3,6.391143799E-2,2.434557594E-1
3.547690732E0,2.312303483E-1,6.328821182E-3,6.372642517E-2,2.399345437E-1
3.552695665E0,2.659620345E-1,-2.828335762E-2,2.364253998E-2,2.685046029E-1
3.557700588E0,2.639655769E-1,-2.811086178E-2,2.370357513E-2,2.665143632E-1
3.562705511E0,2.997195721E-1,9.718298912E-3,2.380371094E-2,3.008203515E-1
3.567679727E0,2.597601116E-1,-6.674480438E-2,2.383327484E-2,2.692549154E-1
3.572684573E0,2.574295998E-1,-6.620061398E-2,4.818916321E-3,2.658490964E-1
3.577689510E0,4.447250366E-1,-1.033380628E-1,4.881858826E-3,4.565993276E-1
3.582694203E0,4.411045909E-1,-1.025331616E-1,4.945755005E-3,4.528915652E-1
3.587699352E0,4.762179852E-1,-1.395247579E-1,6.040573120E-3,4.962733279E-1
3.592704044E0,4.723562598E-1,-1.384342313E-1,6.087303162E-3,4.922616457E-1
3.597708967E0,5.829572678E-1,-6.169235706E-2,6.202697754E-3,5.862453381E-1
3.602683429E0,5.785416365E-1,-6.100571156E-2,6.319046021E-3,5.817835098E-1
3.607688352E0,4.974776506E-1,-9.793680906E-2,3.390312195E-3,5.070375979E-1
3.612693246E0,4.556833804E-1,-2.061116695E-2,3.511428833E-3,4.561627927E-1
3.617698092E0,4.518989623E-1,-2.033376694E-2,3.648757935E-3,4.523709182E-1
3.622702996E0,3.339162767E-1,-2.005004883E-2,7.553100586E-4,3.345185418E-1
3.627677227E0,3.308630288E-1,-1.976895332E-2,8.621215820E-4,3.314542179E-1
3.632682173E0,2.892646492E-1,5.592763424E-2,1.014709473E-3,2.946234328E-1
3.637687096E0,2.866784334E-1,5.556821823E-2,1.169204712E-3,2.920166401E-1
3.642691942E0,2.848197818E-1,1.315621138E-1,5.535316467E-2,3.185825964E-1
3.647696856E0,2.449939251E-1,1.304217577E-1,5.555057526E-2,2.830507457E-1
3.652701779E0,2.434679568E-1,1.296405792E-1,5.570220947E-2,2.814001811E-1
3.657706702E0,3.184295595E-1,5.264031887E-2,5.775547028E-2,3.278781509E-1
3.662680933E0,3.163025677E-1,5.259001255E-2,5.785846710E-2,3.258229979E-1
3.667685856E0,2.754693627E-1,1.290165186E-1,5.799770355E-2,3.096649245E-1
3.672690784E0,2.736321688E-1,1.284819841E-1,5.813980103E-2,3.078350540E-1
3.677695631E0,3.108959198E-1,5.105245113E-2,5.632019043E-2,3.200540416E-1
3.682700554E0,3.848412931E-1,1.252031326E-2,5.645751953E-2,3.891619594E-1
3.687705260E0,3.824169040E-1,1.249015331E-2,5.657386780E-2,3.867806806E-1
3.692679722E0,3.805178106E-1,4.992461205E-2,5.673408508E-2,3.879497744E-1
3.697684549E0,3.781208992E-1,4.964148998E-2,5.477714539E-2,3.852794150E-1
3.702689472E0,3.760012686E-1,1.635874510E-1,5.497837067E-2,4.137153966E-1
3.707694395E0,3.738917112E-1,1.626379490E-1,5.517959595E-2,4.114497563E-1
3.712699323E0,5.626462698E-1,1.997298002E-1,2.544212341E-2,5.975869139E-1
3.717704015E0,5.592747927E-1,2.750504017E-1,2.577781677E-2,6.237832260E-1
3.722678477E0,5.560279489E-1,2.736440897E-1,2.608489990E-2,6.202649351E-1
3.727683395E0,7.050244212E-1,2.345759869E-1,2.639961243E-2,7.434932869E-1
3.732688318E0,6.998986006E-1,2.331762314E-1,-4.714679718E-2,7.392239353E-1
3.737693159E0,8.092787862E-1,2.316807508E-1,-4.670333862E-2,8.430832260E-1
3.742698159E0,8.036483526E-1,2.301959991E-1,-4.625892639E-2,8.372459382E-1
3.747703014E0,8.351478577E-1,1.520539522E-1,-6.081676483E-2,8.510528934E-1
3.752677245E0,7.527299523E-1,1.131078005E-1,-6.036949158E-2,7.635707113E-1
3.757682168E0,7.465704083E-1,1.122019291E-1,-5.994892120E-2,7.573311829E-1
3.762687014E0,6.629969478E-1,7.237386703E-2,-5.951404572E-2,6.695855815E-1
3.767691937E0,6.563460231E-1,7.152497768E-2,-6.101417542E-2,6.630449864E-1
3.772696847E0,5.361425281E-1,2.232373953E-1,-6.047344208E-2,5.839013463E-1
3.777701539E0,5.311250687E-1,2.211246490E-1,-5.997085571E-2,5.784344842E-1
3.782706447E0,4.896408916E-1,1.808006763E-1,1.731014252E-2,5.222420208E-1
3.787711370E0,4.862757325E-1,1.794842482E-1,1.764011383E-2,5.186423209E-1
3.792685832E0,3.310068250E-1,2.543689013E-1,1.799011230E-2,4.178429134E-1
3.797690765E0,1.759520769E-1,3.291419744E-1,1.829051971E-2,3.736684571E-1
3.802695611E0,1.748459935E-1,3.266046047E-1,1.676559448E-3,3.704652482E-1
3.807700544E0,5.948656797E-2,2.852277756E-1,1.952171326E-3,2.913714926E-1
3.812705467E0,5.918252468E-2,2.828845978E-1,2.223014832E-3,2.890176615E-1
3.817710394E0,2.872815132E-1,3.201767206E-1,3.551387787E-2,4.316306706E-1
3.822684625E0,2.854398489E-1,3.184770346E-1,3.580379486E-2,4.291683127E-1
3.827689548E0,3.222138882E-1,1.259014606E-1,3.599452972E-2,3.478053675E-1
3.832694375E0,3.577506542E-1,2.020927668E-1,3.624153137E-2,4.124808669E-1
3.837699298E0,3.555305004E-1,2.008663416E-1,3.740406036E-2,4.100588831E-1
3.842704221E0,4.674410820E-1,2.375236750E-1,3.771877289E-2,5.256818117E-1
3.847678471E0,4.644657969E-1,2.362369299E-1,3.803253174E-2,5.224775948E-1
3.852683394E0,5.374542475E-1,4.638296366E-1,3.847122192E-2,7.109676749E-1
3.857688332E0,5.336018205E-1,4.607905149E-1,-4.091739655E-2,7.062103333E-1
3.862693255E0,6.065132618E-1,5.335239172E-1,-4.031181335E-2,8.087837469E-1
3.867698102E0,6.406532526E-1,6.448459625E-1,-3.966236115E-2,9.098549381E-1
3.872703020E0,6.293894649E-1,6.401479244E-1,-7.145786285E-2,9.005702026E-1
3.877677250E0,6.186239123E-1,7.120198011E-1,-7.022571564E-2,9.458326455E-1
3.882682173E0,6.147835255E-1,7.075715065E-1,-6.948757172E-2,9.399174127E-1
3.887687092E0,5.661025047E-1,6.646653414E-1,-6.825923920E-2,8.757347690E-1
3.892691938E0,5.554405451E-1,6.596155167E-1,-7.795143127E-2,8.658425114E-1
3.897696885E0,5.370048285E-1,4.241738319E-1,-7.612991333E-2,6.885443989E-1
3.902701577E0,4.879271388E-1,4.197132587E-1,-7.487010956E-2,6.479487986E-1
3.907706731E0,4.780073166E-1,4.162846804E-1,4.202842712E-3,6.338782168E-1
3.912680962E0,2.396001816E-1,5.271725655E-1,5.269050598E-3,5.790914640E-1
3.917685885E0,2.312258482E-1,5.224950314E-1,6.398200989E-3,5.714082495E-1
3.922690793E0,-3.099319935E-1,7.463880777E-1,7.459640503E-3,8.082132450E-1
3.927695639E0,-3.080906272E-1,7.420659065E-1,2.178287506E-2,8.037761740E-1
3.932700567E0,-7.692079544E-1,6.595206261E-1,2.258872986E-2,1.013488325E0
3.937705490E0,-7.773080468E-1,6.502895355E-1,2.425861359E-2,1.013741959E0
3.942679721E0,-9.309782982E-1,6.437053680E-1,2.508831024E-2,1.132124823E0
3.947684630E0,-8.562376499E-1,6.372669935E-1,3.690052032E-2,1.067995217E0
3.952689476E0,-8.566363454E-1,6.294264793E-1,3.787231445E-2,1.063690666E0
3.957694399E0,-8.179199696E-1,5.070211887E-1,3.878116608E-2,9.631030793E-1
3.962699328E0,-8.112919331E-1,5.028562546E-1,-1.713943481E-2,9.546479841E-1
3.967704020E0,-6.209538579E-1,3.802754879E-1,-1.622200012E-2,7.283243053E-1
3.972678480E0,-6.206768751E-1,3.726760149E-1,-1.530742645E-2,7.241281052E-1
3.977683403E0,-5.066360235E-1,3.652905226E-1,-1.433277130E-2,6.247580768E-1
3.982688327E0,-5.447494984E-1,5.087416172E-1,-1.313114166E-2,7.454813720E-1
3.987693265E0,-5.449055433E-1,4.992712736E-1,-1.193046570E-2,7.391455823E-1
3.992698188E0,-6.593738198E-1,5.287060738E-1,-1.076126099E-2,8.452335485E-1
3.997703015E0,-6.574368477E-1,5.180985928E-1,-9.546279907E-3,8.371024382E-1
4.002677246E0,-7.308354974E-1,5.075711012E-1,-8.369445801E-3,8.898421178E-1
4.007682169E0,-7.283238769E-1,4.971694946E-1,-7.197380066E-3,8.818644897E-1
4.012687092E0,-8.781890869E-1,4.028633833E-1,-5.161285400E-3,9.661995740E-1
4.017691938E0,-9.863443375E-1,3.623629808E-1,2.873992920E-2,1.051193638E0
4.022696861E0,-9.803750515E-1,3.526760340E-1,2.961158752E-2,1.042301527E0
4.027701783E0,-9.749014378E-1,4.575500488E-1,3.059577942E-2,1.077367608E0
4.032706706E0,-9.706029892E-1,4.480458498E-1,1.055335999E-1,1.074221852E0
4.037681168E0,-9.250718951E-1,2.472963333E-1,1.062059402E-1,9.634278330E-1
4.042685860E0,-9.152833223E-1,2.313116789E-1,1.077423096E-1,9.501879068E-1
4.047690783E0,-7.566353083E-1,1.543829441E-1,1.075572968E-1,7.796792002E-1
4.052695611E0,-8.273326159E-1,2.599090338E-1,1.863203049E-1,8.869877221E-1
4.057700535E0,-8.120296001E-1,2.442630529E-1,1.875162125E-1,8.684577367E-1
4.062705458E0,-6.501304507E-1,2.359567881E-1,1.881227493E-1,7.167533590E-1
4.067679702E0,-6.469649673E-1,2.349367142E-1,1.880674362E-1,7.135322621E-1
4.072684625E0,-7.823492289E-1,2.198678255E-1,2.420730591E-1,8.479454832E-1
4.077689458E0,-7.789139748E-1,2.190456390E-1,2.419824600E-1,8.445374373E-1
4.082694150E0,-6.904276609E-1,2.112559080E-1,2.424077988E-1,7.616304580E-1
4.087699285E0,-7.180455923E-1,3.570647240E-1,2.739791870E-1,8.474368912E-1
4.092704208E0,-6.965305805E-1,3.423048258E-1,2.748994827E-1,8.233451093E-1
4.097708900E0,-8.839020729E-1,3.022432327E-1,2.748565674E-1,9.737453357E-1
4.102683357E0,-8.600778580E-1,2.881934643E-1,2.756280899E-1,9.480296612E-1
4.107688280E0,-8.190903664E-1,3.261752129E-1,3.315677643E-1,9.419323118E-1
4.112693131E0,-8.058875799E-1,3.186962605E-1,3.319883347E-1,9.280292841E-1
4.117698054E0,-9.066032171E-1,3.117181063E-1,3.323011398E-1,1.014653448E0
4.122702982E0,-8.922722340E-1,3.047853708E-1,3.276844025E-1,9.982088606E-1
4.127677213E0,-9.924079180E-1,2.210743427E-1,3.279743195E-1,1.068323216E0
4.132682136E0,-1.130355358E0,3.292253017E-1,3.283224106E-1,1.222247168E0
4.137687059E0,-1.115276694E0,3.223435879E-1,3.286943436E-1,1.206560179E0
4.142691905E0,-1.291883349E0,4.307835102E-1,3.939895630E-1,1.417661736E0
4.147696828E0,-1.265179157E0,4.188522100E-1,3.947296143E-1,1.389937748E0
4.152701752E0,-1.146572351E0,4.177076817E-1,3.947601318E-1,1.282553479E0
4.157706684E0,-1.129041910E0,4.105670452E-1,8.724308014E-2,1.204538206E0
4.162680914E0,-1.112048030E0,5.936981440E-1,8.784008026E-2,1.263663004E0
4.167685837E0,-8.662199974E-1,6.625779867E-1,8.855438232E-2,1.094161117E0
4.172690761E0,-8.504588008E-1,6.545549631E-1,8.929252625E-2,1.076891604E0
4.177695607E0,-7.458696961E-1,5.655924082E-1,8.433723450E-2,9.398559171E-1
4.182700530E0,-7.419722676E-1,5.627524853E-1,8.467483521E-2,9.350845060E-1
4.187705453E0,-7.649706602E-1,4.796919823E-1,8.534049988E-2,9.069550759E-1
4.192679684E0,-7.490366101E-1,4.727519751E-1,8.602809906E-2,8.899163483E-1
4.197684607E0,-5.044118762E-1,5.037435293E-1,7.480525970E-2,7.167877727E-1
4.202689467E0,-3.748853207E-1,4.589688778E-1,7.554340363E-2,5.974096084E-1
4.207694390E0,-3.604773879E-1,4.523606300E-1,7.629871368E-2,5.834342984E-1
4.212699337E0,-2.313618064E-1,5.205901861E-1,-2.066421509E-2,5.700609065E-1
4.217704260E0,-2.168987393E-1,5.129579306E-1,-1.968860626E-2,5.572777969E-1
4.222678722E0,-1.295459270E-2,5.820692778E-1,-1.862621307E-2,5.825112886E-1
4.227683414E0,1.280820370E-2,5.704663992E-1,-1.710700989E-2,5.708665452E-1
4.232688337E0,2.619025111E-2,5.250090361E-1,-1.373291016E-4,5.256619028E-1
4.237693245E0,-7.487069070E-2,5.553270578E-1,9.708404541E-4,5.603523035E-1
4.242698168E0,-7.437406480E-2,5.518010855E-1,1.560211182E-3,5.567929361E-1
4.247703001E0,-2.113115788E-1,5.815345049E-1,-4.908847809E-2,6.206807894E-1
4.252677231E0,-1.963961124E-1,5.732686520E-1,-4.782199860E-2,6.078612702E-1
4.257682154E0,-2.443604767E-1,5.605977774E-1,-4.585742950E-2,6.132575433E-1
4.262687096E0,-2.288992107E-1,5.519403219E-1,-4.443931580E-2,5.991726132E-1
4.267691943E0,-2.509352565E-1,3.531067371E-1,-4.314994812E-2,4.353329631E-1
4.272696866E0,-2.353664339E-1,3.447316885E-1,-4.171562195E-2,4.194967084E-1
4.277701789E0,-2.716135383E-1,2.650833130E-1,-4.124546051E-2,3.817646723E-1
4.282706496E0,-3.316895962E-1,1.437548399E-1,2.376079559E-2,3.622816827E-1
4.287711419E0,-3.159733117E-1,1.375751495E-1,2.487945557E-2,3.455214071E-1
4.292685881E0,-3.001981676E-1,9.385907650E-2,2.595520020E-2,3.155980647E-1
4.297690726E0,-2.859533131E-1,8.756887913E-2,2.714347839E-2,3.002904832E-1
4.302695649E0,-1.573753506E-1,2.325123549E-1,-5.023193359E-2,2.852231465E-1
4.307700577E0,-1.438162625E-1,2.245920897E-1,-4.870700836E-2,2.711034798E-1
4.312705500E0,-1.201212108E-1,3.631218672E-1,-4.586601257E-2,3.852145984E-1
4.317710203E0,-3.334625810E-2,3.544087410E-1,-3.426170349E-2,3.576190612E-1
4.322684664E0,-3.306832165E-2,3.514893055E-1,-3.372764587E-2,3.546488402E-1
4.327689510E0,-2.253538370E-2,2.673337460E-1,-3.211307526E-2,2.701970112E-1
4.332694423E0,-1.191629469E-2,2.593671083E-1,-3.050422668E-2,2.614264769E-1
4.337699346E0,1.486341208E-1,1.757147312E-1,5.184078217E-2,2.359136184E-1
4.342704270E0,1.561554670E-1,1.690859795E-1,5.318450928E-2,2.362269891E-1
4.347678510E0,5.044017732E-2,2.390506268E-1,5.461692810E-2,2.503446074E-1
4.352683433E0,5.875113606E-2,2.322368622E-1,5.603122711E-2,2.460186061E-1
4.357688356E0,6.543053687E-2,2.255320549E-1,5.545616150E-2,2.412907972E-1
4.362693203E0,-1.880043596E-1,2.515459061E-1,5.802822113E-2,3.193560028E-1
4.367698126E0,-1.868458390E-1,2.500946522E-1,5.832481384E-2,3.175854004E-1
4.372703063E0,-2.544188499E-2,2.805274725E-1,-2.214717865E-2,2.825481372E-1
4.377677294E0,-1.319681108E-2,2.682957649E-1,-1.955509186E-2,2.693309765E-1
4.382682217E0,6.831867993E-2,1.477797031E-1,-1.818466187E-2,1.638199152E-1
4.387687140E0,3.003221750E-2,1.075659990E-1,-1.796054840E-2,1.131148069E-1
4.392692063E0,3.592514992E-2,1.016900539E-1,-8.595466614E-3,1.081913375E-1
4.397696909E0,-3.552961349E-2,2.103666067E-1,-7.233619690E-3,2.134684705E-1
4.402701832E0,-2.990849316E-2,2.040693760E-1,-5.878448486E-3,2.063331877E-1
4.407706524E0,-9.960275888E-2,8.375597000E-2,1.929855347E-2,1.315606562E-1
4.412680957E0,-8.802366257E-2,7.399928570E-2,2.149868011E-2,1.169882588E-1
4.417685880E0,-6.879717112E-3,1.456996202E-1,2.266693115E-2,1.476126675E-1
4.422690803E0,3.695690632E-2,2.160325050E-1,2.392101288E-2,2.204723815E-1
4.427695741E0,3.670966625E-2,2.147892714E-1,6.105899811E-2,2.262967784E-1
4.432700587E0,-7.253974676E-2,1.338189840E-1,6.218528748E-2,1.644279335E-1
4.437705511E0,-6.721913815E-2,1.293231249E-1,6.322383881E-2,1.588714479E-1
4.442679760E0,5.223470926E-2,1.627461910E-1,6.428241730E-2,1.826116555E-1
4.447684683E0,5.674380064E-2,1.581312418E-1,6.338024139E-2,1.795616984E-1
4.452689530E0,-1.507252455E-2,2.301529646E-1,6.451416016E-2,2.394987369E-1
4.457694453E0,-1.028871536E-2,2.256164551E-1,6.556510925E-2,2.351753091E-1
4.462699342E0,3.216868639E-2,2.962768078E-1,-4.166603088E-3,2.980471973E-1
4.467704265E0,-3.866839409E-2,2.530725002E-1,-2.984046936E-3,2.560270291E-1
4.472678745E0,-3.362536430E-2,2.480273247E-1,-1.807212830E-3,2.503027865E-1
4.477683438E0,8.548465371E-2,2.430865765E-1,-6.752014160E-4,2.576803554E-1
4.482688284E0,8.932030201E-2,2.383242846E-1,-5.585670471E-3,2.545737235E-1
4.487693270E0,1.685834080E-1,2.336003780E-1,-4.521369934E-3,2.881144649E-1
4.492698116E0,1.762201935E-1,2.261887789E-1,-2.755165100E-3,2.867446795E-1
4.497703053E0,2.925370038E-1,-6.522178650E-3,7.751464844E-3,2.927123547E-1
4.502677284E0,3.314797282E-1,2.938568592E-2,8.417129517E-3,3.328861319E-1
4.507682207E0,3.281622231E-1,2.910399437E-2,8.360862732E-3,3.295563551E-1
4.512687044E0,3.332398832E-1,-1.530861855E-2,9.642601013E-3,3.337306598E-1
4.517691967E0,3.306664526E-1,-1.512360573E-2,5.451679230E-2,3.354714697E-1
4.522696890E0,1.426799595E-1,-1.771962643E-2,5.515098572E-2,1.539908674E-1
4.527701798E0,1.497223675E-1,-2.306795120E-2,5.649852753E-2,1.616817903E-1
4.532706491E0,7.598811388E-2,1.316666603E-2,5.523777008E-2,9.486182472E-2
4.537680952E0,-3.865441680E-2,5.084955692E-2,5.530166626E-2,8.448736988E-2
4.542685880E0,-3.463545442E-2,4.785144329E-2,5.606555939E-2,8.144152674E-2
4.547690727E0,4.580557346E-2,8.272206783E-2,5.685997009E-2,1.103365183E-1
4.552695626E0,5.282151699E-2,7.658398151E-2,-4.608154297E-3,9.314748503E-2
4.557700549E0,-2.386966348E-2,3.807783127E-2,-4.513740540E-3,4.516697823E-2
4.562705472E0,-2.008005977E-2,3.503799438E-2,-3.739356995E-3,4.055678293E-2
4.567679689E0,2.587941289E-2,-4.682004452E-2,-2.451896667E-3,5.355251980E-2
4.572684612E0,6.683763862E-2,2.757024765E-2,7.514858246E-2,1.042818198E-1
4.577689444E0,6.970742345E-2,2.497339249E-2,7.580280304E-2,1.059663162E-1
4.582694367E0,7.256659865E-2,2.240324020E-2,7.645225525E-2,1.077625340E-1
4.587699284E0,7.206276059E-2,2.235960960E-2,7.644176483E-2,1.074073415E-1
4.592704207E0,7.501107454E-2,5.775141716E-2,7.712554932E-2,1.221074848E-1
4.597709130E0,7.764747739E-2,5.518126488E-2,7.777023315E-2,1.229728096E-1
4.602683361E0,1.566593945E-1,-2.292394638E-2,7.828426361E-2,1.766241748E-1
4.607688284E0,5.871981382E-3,-1.012960672E-1,6.708145142E-3,1.016876227E-1
4.612693216E0,9.085237980E-3,-1.026564837E-1,7.125854492E-3,1.033037898E-1
4.617698062E0,5.394530296E-2,-1.057986021E-1,8.028984070E-3,1.190290070E-1
4.622702956E0,5.353036523E-2,-1.049388647E-1,7.593059540E-2,1.401539177E-1
4.627677187E0,1.753786206E-2,-1.060703993E-1,7.629394531E-2,1.318304680E-1
4.632682110E0,2.367118001E-2,-1.091483831E-1,7.720184326E-2,1.357712006E-1
4.637687043E0,2.356553078E-2,-1.082206964E-1,7.700157166E-2,1.348936448E-1
4.642691966E0,2.660527825E-2,-1.089044809E-1,7.922554016E-2,1.372760468E-1
4.647696823E0,-8.458441496E-2,-1.473916769E-1,7.947254181E-2,1.876025442E-1
4.652701746E0,-8.063182235E-2,-1.863816977E-1,7.964229584E-2,2.181341864E-1
4.657706654E0,-7.670199871E-2,-1.859275103E-1,8.376789093E-2,2.178744942E-1
4.662680885E0,1.210917234E-1,-1.864043474E-1,8.412456512E-2,2.376693684E-1
4.667685808E0,1.201408505E-1,-1.848987341E-1,8.376502991E-2,2.358769723E-1
4.672690726E0,3.920812309E-1,-1.461113691E-1,8.398342133E-2,4.267662579E-1
4.677695572E0,3.920131922E-1,-1.452766657E-1,2.875423431E-2,4.190542428E-1
4.682700495E0,5.017406344E-1,-1.827551126E-1,2.824211121E-2,5.347342445E-1
4.687705216E0,4.256776273E-1,-2.194246054E-1,2.797317505E-2,4.797198124E-1
4.692679678E0,4.256630242E-1,-2.181562185E-1,2.770423889E-2,4.791123779E-1
4.697684524E0,3.911367655E-1,-1.025604010E-1,4.769229889E-2,4.071623270E-1
4.702689447E0,3.910913169E-1,-1.016038656E-1,4.748916626E-2,4.068549921E-1
4.707694370E0,2.770442963E-1,-1.006575823E-1,4.733467102E-2,2.985398835E-1
4.712699298E0,2.778331637E-1,-9.929239750E-2,2.608394623E-2,2.961935504E-1
4.717703991E0,3.140408993E-1,-1.361976862E-1,2.570819855E-2,3.432672539E-1
4.722678452E0,3.522939086E-1,1.707148552E-2,2.566432953E-2,3.536397764E-1
4.727683375E0,3.559643626E-1,1.772332191E-2,2.569293976E-2,3.573301985E-1
4.732688298E0,3.153123856E-1,-5.866909027E-2,4.150390625E-2,3.233984182E-1
4.737693226E0,3.157684803E-1,-5.750322342E-2,4.127979279E-2,3.236052768E-1
4.742698073E0,3.921541274E-1,9.550476074E-2,4.129314423E-2,4.057229876E-1
4.747703010E0,3.921428919E-1,9.540009499E-2,1.836585999E-2,4.039981814E-1
4.752677240E0,4.292052984E-1,-5.643939972E-2,1.808261871E-2,4.332777113E-1
4.757682164E0,3.159092665E-1,-1.695486307E-1,1.770687103E-2,3.589692690E-1
4.762687029E0,3.189715147E-1,-1.667712927E-1,1.726436615E-2,3.603519801E-1
4.767691952E0,2.800858021E-1,-8.805644512E-2,3.583145142E-2,2.957801328E-1
4.772696875E0,2.795518637E-1,-8.646142483E-2,3.547477722E-2,2.947597026E-1
4.777701567E0,2.414089441E-1,-8.488512039E-2,3.513717651E-2,2.582990189E-1
4.782706495E0,2.391932905E-1,-8.408260345E-2,3.697013855E-2,2.562227655E-1
4.787711418E0,2.412735522E-1,-4.422414303E-2,3.666591644E-2,2.480183284E-1
4.792685880E0,2.392343581E-1,-4.381644726E-2,3.648853302E-2,2.459357074E-1
4.797690784E0,4.792183638E-2,-1.565335989E-1,3.603458405E-2,1.676238683E-1
4.802695630E0,1.093038917E-2,3.607380390E-2,1.079578400E-1,1.143489744E-1
4.807700553E0,1.203095913E-2,3.667974472E-2,1.078815460E-1,1.145799966E-1
4.812705476E0,5.143472552E-2,-3.864371777E-2,1.076021194E-1,1.253677950E-1
4.817710399E0,5.150815845E-2,-3.770351410E-2,1.074104309E-1,1.249465727E-1
4.822684630E0,1.371088624E-2,3.973543644E-2,1.073226929E-1,1.152608074E-1
4.827689567E0,1.360332966E-2,3.963804245E-2,1.073379517E-1,1.152287328E-1
4.832694414E0,1.383778453E-2,7.844519615E-2,1.072025299E-1,1.335571619E-1
4.837699309E0,-6.272622943E-2,4.051935673E-2,2.618312836E-2,7.913251126E-2
4.842704232E0,-6.225502491E-2,4.026257992E-2,2.625751495E-2,7.865253054E-2
4.847678462E0,-2.137247324E-1,-3.549647331E-2,2.608108521E-2,2.182165985E-1
4.852683409E0,-2.123231292E-1,-3.494119644E-2,2.602958679E-2,2.167476362E-1
4.857688332E0,-2.482112646E-1,-7.225894928E-2,2.494335175E-2,2.597159187E-1
4.862693255E0,-2.464707792E-1,-7.139754295E-2,2.484512329E-2,2.578036739E-1
4.867698116E0,-2.444644868E-1,-1.468586922E-1,2.459812164E-2,2.862436521E-1
4.872703039E0,-2.811054587E-1,-1.833014488E-1,1.023550034E-1,3.508507472E-1
4.877677270E0,-2.796450257E-1,-1.817996502E-1,1.021127701E-1,3.488258463E-1
4.882682193E0,-3.926426768E-1,8.599567413E-2,1.022539139E-1,4.147522038E-1
4.887687116E0,-3.907468021E-1,8.574485779E-2,1.023941040E-1,4.129404273E-1
4.892691942E0,-6.558457017E-1,2.766326666E-1,7.981395721E-2,7.162607657E-1
4.897696865E0,-6.522157192E-1,2.754403353E-1,8.023357391E-2,7.125237884E-1
4.902701788E0,-9.549455643E-1,5.035289526E-1,8.082580566E-2,1.082587293E0
4.907706697E0,-1.216752529E0,6.536154747E-1,-7.337570190E-2,1.383142762E0
4.912680928E0,-1.210667849E0,6.507177353E-1,-7.247543335E-2,1.376373096E0
4.917685851E0,-1.319713712E0,7.626942396E-1,-7.153701782E-2,1.525930644E0
4.922690770E0,-1.312487483E0,7.596186399E-1,-7.053184509E-2,1.518097037E0
4.927695617E0,-1.190595388E0,7.942826748E-1,-7.144641876E-2,1.433006259E0
4.932700558E0,-1.180438519E0,7.909297943E-1,-7.021617889E-2,1.422650817E0
4.937705481E0,-1.171711922E0,6.728394032E-1,-6.911659241E-2,1.352922316E0
4.942679711E0,-1.166584969E0,7.467541695E-1,-6.817245483E-2,1.386798386E0
4.947684558E0,-1.158055782E0,7.434775829E-1,-7.601833344E-2,1.378270981E0
4.952689481E0,-1.034890294E0,7.011640072E-1,-7.486343384E-2,1.252291268E0
4.957694404E0,-1.019868374E0,6.973738670E-1,-7.321357727E-2,1.237667984E0
4.962699327E0,-8.559703827E-1,6.169080734E-1,-1.596994400E-1,1.067129223E0
4.967704250E0,-8.502143025E-1,6.127674580E-1,-1.584835052E-1,1.059936479E0
4.972678463E0,-6.858297586E-1,4.553070068E-1,-1.568565369E-1,8.380160508E-1
4.977683386E0,-6.746187210E-1,4.508841038E-1,-1.552314758E-1,8.261378244E-1
4.982688309E0,-3.974276185E-1,4.474301338E-1,-2.868280411E-1,6.636360160E-1
4.987693217E0,3.141909838E-2,2.532496452E-1,-2.859287262E-1,3.832463686E-1
4.992698140E0,4.744225740E-2,2.488703728E-1,-2.839651108E-1,3.805567164E-1
4.997703001E0,3.912740648E-1,5.642724037E-2,-3.940467834E-1,5.581686974E-1
5.002677232E0,3.992739618E-1,5.382919312E-2,-3.929672241E-1,5.627970485E-1
5.007682155E0,6.356281638E-1,-1.012744904E-1,-3.920345306E-1,7.536383471E-1
5.012687111E0,6.429424286E-1,-1.033909321E-1,-3.910903931E-1,7.596159206E-1
5.017691957E0,9.580913782E-1,-2.220979929E-1,-4.985837936E-1,1.102656976E0
5.022696881E0,1.119835258E0,-2.635873556E-1,-4.972219467E-1,1.253291252E0
5.027701833E0,1.128553033E0,-2.670961618E-1,-4.958572388E-1,1.261287719E0
5.032706756E0,1.250685334E0,-1.936179399E-1,-3.006572723E-1,1.300806099E0
5.037681217E0,1.259408355E0,-1.986795664E-1,-2.989387512E-1,1.309559984E0
5.042685929E0,1.192331791E0,-2.425397635E-1,-2.972345352E-1,1.252529044E0
5.047690852E0,1.201351881E0,-2.473899126E-1,-2.955169678E-1,1.261657001E0
5.052695713E0,1.127263784E0,-3.257530928E-1,1.061811447E-1,1.178182139E0
5.057700636E0,1.091384649E0,-4.813456535E-1,1.066827774E-1,1.197578935E0
5.062705559E0,1.093622923E0,-4.828829765E-1,1.071844101E-1,1.200281452E0
5.067679756E0,1.111705065E0,-7.578711510E-1,1.100683212E-1,1.349952543E0
5.072684679E0,1.117829919E0,-7.606506348E-1,4.381494522E-1,1.421305055E0
5.077689530E0,6.290420890E-1,-8.388347626E-1,4.392833710E-1,1.136797075E0
5.082694453E0,6.261469722E-1,-8.348777294E-1,4.381875992E-1,1.131852122E0
5.087699159E0,6.076687574E-1,-9.597653151E-1,9.429674149E-1,1.476346275E0
5.092704313E0,4.219700396E-1,-1.039050341E0,9.439039230E-1,1.465823639E0
5.097709006E0,4.208465517E-1,-1.036266088E0,9.431982040E-1,1.463072821E0
5.102683477E0,4.260935485E-1,-8.091936111E-1,9.442558289E-1,1.314522378E0
5.107688400E0,4.314087331E-1,-8.122544289E-1,1.085464478E0,1.422710049E0
5.112693241E0,7.429190874E-1,-8.186211586E-1,1.087326050E0,1.550595792E0
5.117698165E0,7.412654161E-1,-8.165843487E-1,1.086738586E0,1.548316883E0
5.122703098E0,7.412787676E-1,-6.295469999E-1,1.106741905E0,1.473329997E0
5.127677328E0,7.404695153E-1,-6.311873198E-1,1.107041359E0,1.473849757E0
5.132682217E0,4.721787870E-1,-2.895807028E-1,1.107543945E0,1.238330885E0
5.137687141E0,4.296089113E-1,-2.243137360E-2,1.107369423E0,1.187995800E0
5.142691987E0,4.246172607E-1,-2.332210541E-2,6.811647415E-1,8.030125427E-1
5.147696924E0,4.574867785E-1,1.470398903E-2,6.809749603E-1,8.205103634E-1
5.152701847E0,4.560668170E-1,1.505303383E-2,6.807832718E-1,8.195665919E-1
5.157706775E0,7.097963095E-1,9.186244011E-2,6.655302048E-1,9.773330867E-1
5.162681006E0,7.076936364E-1,9.198522568E-2,6.653385162E-1,9.756879142E-1
5.167685929E0,7.372983098E-1,-9.807753563E-2,6.644592285E-1,9.973635581E-1
5.172690847E0,8.356577754E-1,-1.720495224E-1,6.625995636E-1,1.080260680E0
5.177695693E0,8.262696266E-1,-1.694757938E-1,6.983728409E-1,1.095065370E0
5.182700616E0,9.772801995E-1,-3.589972258E-1,6.978292465E-1,1.253363975E0
5.187705539E0,9.674091339E-1,-3.558043242E-1,6.963920593E-1,1.243961032E0
5.192679750E0,9.575352669E-1,-4.294126034E-1,6.949005127E-1,1.258632470E0
5.197684673E0,9.480803609E-1,-4.259910583E-1,8.083658218E-1,1.316730821E0
5.202689519E0,5.956083536E-1,-2.301875353E-1,8.069334030E-1,1.029017555E0
5.207694418E0,3.134626448E-1,-7.082414627E-2,8.045425415E-1,8.663507318E-1
5.212699342E0,3.064911067E-1,-6.674098969E-2,8.792181015E-1,9.334964532E-1
5.217704236E0,-6.756782532E-3,-6.265044212E-2,8.779020309E-1,8.801606149E-1
5.222678697E0,-1.287335157E-2,-5.854654312E-2,8.765935898E-1,8.786408496E-1
5.227683389E0,-1.297187805E-2,-2.495261431E-1,8.763647079E-1,9.112884653E-1
5.232688294E0,-1.907634735E-2,-2.449721098E-1,1.066966057E0,1.094893514E0
5.237693217E0,4.925161600E-2,-6.224104166E-1,1.065201759E0,1.234696415E0
5.242698063E0,1.850620508E-1,-4.981588125E-1,1.062103271E0,1.187633582E0
5.247703000E0,1.762757897E-1,-4.927128553E-1,1.058424950E0,1.180721172E0
5.252677231E0,4.350664616E-1,-4.872230291E-1,1.056669235E0,1.242263651E0
5.257682154E0,4.339936376E-1,-4.857047796E-1,1.056277275E0,1.240959827E0
5.262687092E0,7.640193701E-1,-2.888184786E-1,1.054385185E0,1.333742790E0
5.267691938E0,7.490956783E-1,-2.834876776E-1,5.732631683E-1,9.849569832E-1
5.272696861E0,9.256922007E-1,-1.635500193E-1,5.713024139E-1,1.100018685E0
5.277701784E0,9.497513175E-1,-8.317065239E-2,5.695953369E-1,1.110578124E0
5.282706477E0,9.346996546E-1,-7.872509956E-2,3.569335938E-1,1.003624768E0
5.287711400E0,9.578504562E-1,1.547784805E-1,3.553981781E-1,1.033315895E0
5.292685861E0,9.362460375E-1,1.620085239E-1,3.527708054E-1,1.013533742E0
5.297690716E0,8.108931184E-1,3.565194607E-1,3.517341614E-1,9.530848313E-1
5.302695639E0,8.062621951E-1,3.547182083E-1,1.478891373E-1,8.931712778E-1
5.307700583E0,5.662206411E-1,4.323141575E-1,1.470813751E-1,7.274161643E-1
5.312705506E0,5.561996698E-1,4.339954853E-1,1.462602615E-1,7.204874864E-1
5.317710183E0,3.583597839E-1,7.018043995E-1,9.285545349E-2,7.934565427E-1
5.322684644E0,2.740435004E-1,6.636588573E-1,9.253406525E-2,7.239512914E-1
5.327689491E0,2.667524815E-1,6.636474133E-1,9.221458435E-2,7.211714810E-1
5.332694419E0,1.450515687E-1,7.017657757E-1,9.192180634E-2,7.224713005E-1
5.337699342E0,1.382640898E-1,7.011096478E-1,9.476947784E-2,7.208695795E-1
5.342704265E0,2.081978619E-1,7.004935741E-1,9.459781647E-2,7.368760710E-1
5.347678486E0,2.010656595E-1,6.999342442E-1,9.442138672E-2,7.343369416E-1
5.352683409E0,3.837465942E-1,5.470325947E-1,9.406661987E-2,6.747997015E-1
5.357688313E0,6.409077644E-1,3.553898335E-1,3.675174713E-2,7.337679382E-1
5.362693159E0,6.301028728E-1,3.549380302E-1,3.643226624E-2,7.241118323E-1
5.367698082E0,6.564905643E-1,2.015941143E-1,3.588676453E-2,6.876829995E-1
5.372703014E0,6.458383799E-1,2.026734352E-1,9.332466125E-2,6.832958559E-1
5.377677168E0,5.212305188E-1,1.264791489E-1,9.302043915E-2,5.443629588E-1
5.382682168E0,5.117818713E-1,1.264028549E-1,9.271621704E-2,5.352519616E-1
5.387687120E0,2.375380099E-1,3.929712772E-1,9.278869629E-2,4.684660853E-1
5.392692043E0,2.303275764E-1,4.682674408E-1,8.585548401E-2,5.288632646E-1
5.397696880E0,2.235651016E-1,4.644236565E-1,8.645153046E-2,5.226323320E-1
5.402701804E0,1.404123753E-1,6.508643627E-1,8.721446991E-2,6.715254407E-1
5.407706741E0,1.341064721E-1,6.458232403E-1,1.819229126E-2,6.598508642E-1
5.412680971E0,1.223234683E-1,6.398091316E-1,1.912498474E-2,6.516782341E-1
5.417685894E0,1.159817725E-1,6.328971386E-1,2.041912079E-2,6.437604369E-1
5.422690808E0,2.297252119E-1,8.204891682E-1,2.132511139E-2,8.523091625E-1
5.427695731E0,4.128627181E-1,8.887903690E-1,1.977252960E-2,9.802014574E-1
5.432700558E0,4.049886465E-1,8.812468052E-1,2.118682861E-2,9.700827888E-1
5.437705481E0,6.636373401E-1,7.191512585E-1,2.291107178E-2,9.788350060E-1
5.442679712E0,6.486194134E-1,7.052154541E-1,2.557373047E-2,9.584831745E-1
5.447684621E0,1.062013388E0,3.965015411E-1,-2.058982849E-3,1.133618166E0
5.452689467E0,1.048846960E0,3.890869617E-1,-7.286071777E-4,1.118690815E0
5.457694390E0,1.303055406E0,3.411560059E-1,9.450912476E-4,1.346975020E0
5.462699313E0,1.289871931E0,3.325634003E-1,3.363704681E-2,1.332478692E0
5.467704236E0,1.506169081E0,4.008247852E-1,3.531646729E-2,1.558991039E0
5.472678698E0,1.493168592E0,5.446622372E-1,3.714084625E-2,1.589839250E0
5.477683390E0,1.480151415E0,5.358159542E-1,3.891944885E-2,1.574630646E0
5.482688313E0,1.237853050E0,6.013069153E-1,-4.774379730E-2,1.377000236E0
5.487693221E0,1.225520134E0,5.898458958E-1,-4.530906677E-2,1.360834557E0
5.492698067E0,1.212519050E0,4.641008377E-1,-4.302692413E-2,1.299016301E0
5.497702980E0,1.199607849E0,4.523272514E-1,-4.736614227E-2,1.282927311E0
5.502677211E0,1.262863755E0,3.641960621E-1,-4.491424561E-2,1.315097306E0
5.507682134E0,1.401154757E0,2.777011395E-1,-4.260730743E-2,1.429044421E0
5.512686972E0,1.380553961E0,2.587749958E-1,-3.831481934E-2,1.405119839E0
5.517691895E0,1.401986837E0,3.303861618E-1,-1.783351898E-1,1.451387456E0
5.522696818E0,1.378867388E0,3.175373077E-1,-1.753454208E-1,1.425780920E0
5.527701741E0,1.620737195E0,3.355262280E-1,-1.705846786E-1,1.663870800E0
5.532706433E0,1.602870107E0,3.256921768E-1,-1.622581482E-2,1.635705123E0
5.537680895E0,1.545848966E0,2.401716709E-1,-1.385784149E-2,1.564456294E0
5.542685842E0,1.423662305E0,3.910341263E-1,-1.328849792E-2,1.476447978E0
5.547690688E0,1.398030758E0,3.730854988E-1,-8.736610413E-3,1.446982763E0
5.552695601E0,1.150647402E0,4.022281170E-1,1.766290665E-1,1.231655280E0
5.557700524E0,1.145681858E0,4.007668495E-1,1.770458221E-1,1.226599450E0
5.562705447E0,8.222517371E-1,2.771413326E-1,1.793537140E-1,8.860434482E-1
5.567679678E0,8.058949113E-1,2.687129974E-1,1.816616058E-1,8.687198755E-1
5.572684601E0,5.609182119E-1,7.067894936E-2,2.876014709E-1,6.343022627E-1
5.577689437E0,6.188232899E-1,-1.306152344E-2,2.895889282E-1,6.833554089E-1
5.582694360E0,5.998270512E-1,-1.955103874E-2,2.915811539E-1,6.672288241E-1
5.587699269E0,9.071021676E-1,-2.612800598E-1,2.124385834E-1,9.675907006E-1
5.592704192E0,8.830243945E-1,-2.657008171E-1,2.141828537E-1,9.466801468E-1
5.597709116E0,1.125578761E0,-4.600111246E-1,2.157688141E-1,1.234946948E0
5.602683366E0,1.119215369E0,-4.571799040E-1,2.152585983E-1,1.228003571E0
5.607688289E0,1.321925879E0,-4.979702234E-1,1.407718658E-1,1.419605258E0
5.612693204E0,1.255833864E0,-5.002864599E-1,1.423158646E-1,1.359286225E0
5.617698050E0,1.207425356E0,-5.075892210E-1,1.460618973E-1,1.317898663E0
5.622702968E0,1.124689579E0,-3.900101185E-1,1.667127609E-1,1.202009853E0
5.627677199E0,1.097875834E0,-3.925652504E-1,1.685400009E-1,1.178068145E0
5.632682122E0,1.013426542E0,-3.241441250E-1,1.726961136E-1,1.077927047E0
5.637687045E0,9.871273637E-1,-3.261799812E-1,1.745767593E-1,1.054177811E0
5.642691968E0,1.019721985E0,-2.476537228E-1,2.005653381E-1,1.068359372E0
5.647696818E0,9.940441847E-1,-2.502260208E-1,2.026338577E-1,1.044891087E0
5.652701741E0,1.044174433E0,-2.912640572E-1,2.046527863E-1,1.103185279E0
5.657706664E0,1.058704615E0,-4.451987743E-1,3.752746582E-1,1.208258449E0
5.662680895E0,1.034329653E0,-4.459919930E-1,3.770170212E-1,1.187808285E0
5.667685818E0,1.085942507E0,-4.844413996E-1,3.787527084E-1,1.247961623E0
5.672690727E0,1.061487436E0,-4.846028090E-1,3.804674149E-1,1.227334882E0
5.677695573E0,9.994291663E-1,-4.066541195E-1,3.519163132E-1,1.134932299E0
5.682700496E0,9.755781293E-1,-4.055204391E-1,3.533840179E-1,1.114037601E0
5.687705433E0,9.519316554E-1,-3.285548687E-1,3.549509048E-1,1.067760424E0
5.692679664E0,9.285300970E-1,-2.131111622E-1,3.566522598E-1,1.017243994E0
5.697684501E0,9.038649797E-1,-2.120008469E-1,1.564712524E-1,9.414879253E-1
5.702689425E0,7.078517079E-1,-2.834975719E-1,1.587381363E-1,7.788598781E-1
5.707694348E0,7.035477757E-1,-2.815041542E-1,1.586103439E-1,7.741971989E-1
5.712699020E0,7.557422519E-1,-2.386243343E-1,1.376991272E-1,8.043935441E-1
5.717703943E0,7.140571475E-1,-2.290418148E-1,1.391353607E-1,7.626902461E-1
5.722678405E0,7.862367630E-1,-2.661709785E-1,1.391172409E-1,8.416465078E-1
5.727683338E0,7.631850839E-1,-2.601830959E-1,1.398353577E-1,8.183523953E-1
5.732688261E0,7.395218611E-1,-2.536008358E-1,8.157444000E-2,7.860409380E-1
5.737693179E0,7.164599299E-1,-3.217122555E-1,8.193111420E-2,7.896368241E-1
5.742698025E0,6.759626865E-1,-3.079841137E-1,8.275985718E-2,7.474148526E-1
5.747702958E0,6.527004242E-1,-2.994434834E-1,4.311370850E-2,7.194046395E-1
5.752677189E0,6.298149824E-1,-2.908611298E-1,4.352760315E-2,6.950983823E-1
5.757682112E0,6.078433990E-1,-2.440812588E-1,4.387855530E-2,6.564865469E-1
5.762686972E0,5.097897053E-1,-1.593041420E-1,4.439449310E-2,5.359423703E-1
5.767691895E0,4.872527122E-1,-1.510748863E-1,-4.196357727E-2,5.118591297E-1
5.772696809E0,3.532487154E-1,-1.431372166E-1,-4.149627686E-2,3.833990854E-1
5.777701502E0,3.334338665E-1,-1.354398727E-1,-4.094505310E-2,3.622134727E-1
5.782706425E0,2.536733150E-1,-1.725492477E-1,-2.056121826E-3,3.068022511E-1
5.787711348E0,2.347503901E-1,-1.642465591E-1,-1.706123352E-3,2.865093169E-1
5.792685809E0,1.629266739E-1,4.043030739E-2,-4.663467407E-4,1.678687830E-1
5.797690712E0,1.455342770E-1,4.632711411E-2,3.795623779E-4,1.527303877E-1
5.802695559E0,-2.408123016E-2,1.285679340E-1,1.513385773E-2,1.316763189E-1
5.807700486E0,-9.922778606E-2,2.029409409E-1,1.541328430E-2,2.264260328E-1
5.812705409E0,-1.139332056E-1,2.078943253E-1,1.618862152E-2,2.376192275E-1
5.817710361E0,-1.667200327E-1,2.506713867E-1,1.819324493E-2,3.016002447E-1
5.822684592E0,-1.954667568E-1,2.604131699E-1,1.981639862E-2,3.262130618E-1
5.827689515E0,-2.317482233E-1,4.862413406E-1,2.034568787E-2,5.390285961E-1
5.832694404E0,-2.450882196E-1,4.892795086E-1,2.147769928E-2,5.476531425E-1
5.837699327E0,-1.810663939E-1,4.535651207E-1,2.767372131E-2,4.891545692E-1
5.842704250E0,-2.702314854E-1,4.181294441E-1,2.880764008E-2,4.986854398E-1
5.847678477E0,-2.964620590E-1,4.261994362E-1,3.067302704E-2,5.200735971E-1
5.852683400E0,-2.562273741E-1,2.325379848E-1,3.073215485E-2,3.473770962E-1
5.857688323E0,-2.668296099E-1,2.354846001E-1,3.458023071E-2,3.575567506E-1
5.862693246E0,-1.632494926E-1,2.008681297E-1,3.547573090E-2,2.612602723E-1
5.867698092E0,-1.746118069E-1,2.042346001E-1,3.636550903E-2,2.711521809E-1
5.872703024E0,-8.291924000E-2,2.496969700E-1,3.012752533E-2,2.648241775E-1
5.877677255E0,-2.341679335E-1,3.999474049E-1,3.050518036E-2,4.644600238E-1
5.882682101E0,-2.433358431E-1,4.012804031E-1,3.157806396E-2,4.703567461E-1
5.887687010E0,-3.667894602E-1,5.559608936E-1,3.272914886E-2,6.668569716E-1
5.892691934E0,-3.753407001E-1,5.567319393E-1,4.390621185E-2,6.728735757E-1
5.897696861E0,-5.444208980E-1,5.214643478E-1,4.551410675E-2,7.552421559E-1
5.902701784E0,-5.494838357E-1,5.207972527E-1,4.645538330E-2,7.584987585E-1
5.907706722E0,-5.841880441E-1,7.089581490E-1,7.472229004E-2,9.216727990E-1
5.912680953E0,-4.376803637E-1,8.226742744E-1,7.600784302E-2,9.349514719E-1
5.917685876E0,-4.440429211E-1,8.216943741E-1,7.723045349E-2,9.371874429E-1
5.922690794E0,-2.644494772E-1,8.576292992E-1,7.954502106E-2,9.009933136E-1
5.927695640E0,-2.693392038E-1,8.539192677E-1,2.286911011E-3,8.953920663E-1
5.932700568E0,-2.677861452E-1,9.642415047E-1,3.114700317E-3,1.000740126E0
5.937705491E0,-2.747048140E-1,9.567315578E-1,5.977630615E-3,9.954063194E-1
5.942679722E0,-3.153132200E-1,9.886109829E-1,7.843971252E-3,1.037706910E0
5.947684558E0,-3.552708626E-1,9.433608055E-1,-6.814384460E-2,1.010341813E0
5.952689481E0,-3.554648161E-1,9.344358444E-1,-6.599140167E-2,1.001938345E0
5.957694404E0,-3.943737745E-1,8.873035908E-1,-6.381511688E-2,9.730933693E-1
5.962699327E0,-3.941329718E-1,8.777177334E-1,-8.855724335E-2,9.662150921E-1
5.967704020E0,-5.456767082E-1,8.678565025E-1,-8.641529083E-2,1.028788405E0
5.972678495E0,-5.416781902E-1,8.615353107E-1,-8.552455902E-2,1.021260400E0
5.977683418E0,-6.930520535E-1,8.074707985E-1,-8.212566376E-2,1.067274503E0
5.982688264E0,-6.885590553E-1,8.023786545E-1,-8.696556091E-3,1.057355526E0
5.987693279E0,-8.002790213E-1,9.456980228E-1,-6.596565247E-3,1.238884489E0
5.992698126E0,-1.026799440E0,1.080942392E0,-2.762794495E-3,1.490892746E0
5.997703083E0,-1.020857215E0,1.066871405E0,-8.810710907E-2,1.479231865E0
6.002677313E0,-1.167303801E0,1.251864195E0,-8.738803864E-2,1.713884125E0
6.007682237E0,-1.161482215E0,1.237932205E0,-8.480834961E-2,1.699620410E0
6.012687083E0,-1.194514275E0,1.453241587E0,-8.214855194E-2,1.882956146E0
6.017692006E0,-1.188785791E0,1.437388897E0,-1.141166687E-1,1.868775298E0
6.022696929E0,-1.221878886E0,1.421593666E0,-1.109952927E-1,1.877827606E0
6.027701852E0,-1.215824485E0,1.367908001E0,-1.078815460E-1,1.833313913E0
6.032706544E0,-1.209818006E0,1.352378845E0,-1.167812347E-1,1.818303056E0
6.037681237E0,-1.241598248E0,1.412344933E0,-1.133184433E-1,1.883912283E0
6.042685920E0,-1.235294461E0,1.385617018E0,-1.072425842E-1,1.859405254E0
6.047690843E0,-1.152640343E0,1.444918871E0,-1.036357880E-1,1.851245710E0
6.052695689E0,-1.149092436E0,1.440963507E0,2.058830261E-1,1.854501840E0
6.057700612E0,-9.545692205E-1,1.541126490E0,2.093324661E-1,1.824854333E0
6.062705535E0,-7.595536709E-1,1.488279343E0,2.128543854E-1,1.684400240E0
6.067679780E0,-7.565509081E-1,1.473570347E0,2.163925171E-1,1.670510271E0
6.072684703E0,-5.635863543E-1,1.382864475E0,3.048934937E-1,1.524107535E0
6.077689563E0,-5.585889816E-1,1.356981039E0,3.112678528E-1,1.500102285E0
6.082694487E0,-3.638013601E-1,1.381401777E0,3.148956299E-1,1.462799220E0
6.087699410E0,-3.610465527E-1,1.366888046E0,3.264856339E-1,1.450975676E0
6.092704131E0,-4.369833469E-1,1.401818514E0,3.271799088E-1,1.504359094E0
6.097709054E0,-5.055010915E-1,1.489017487E0,3.339118958E-1,1.607545204E0
6.102683516E0,-5.039719939E-1,1.485603571E0,3.346529007E-1,1.604056827E0
6.107688430E0,-5.764954090E-1,1.814901114E0,3.695201874E-1,1.939783023E0
6.112693276E0,-5.725395679E-1,1.799462795E0,3.733596802E-1,1.924906585E0
6.117698199E0,-7.963513732E-1,2.011046886E0,3.774948120E-1,2.195674708E0
6.122703136E0,-7.889243960E-1,1.989586115E0,-2.643051147E-1,2.156550905E0
6.127677367E0,-8.967560530E-1,2.275442362E0,-2.591905594E-1,2.459469273E0
6.132682290E0,-8.855524063E-1,2.240746260E0,-2.505321503E-1,2.422377597E0
6.137687213E0,-8.833642006E-1,2.349123716E0,-2.488546371E-1,2.522031557E0
6.142692059E0,-7.608823180E-1,2.441644192E0,-2.812547684E-1,2.572872423E0
6.147696968E0,-7.535285354E-1,2.419164181E0,-2.754955292E-1,2.548736623E0
6.152701891E0,-5.178861618E-1,2.473205328E0,-2.696266174E-1,2.541190505E0
6.157706804E0,-5.089099407E-1,2.438051701E0,-9.500408173E-1,2.665644946E0
6.162681035E0,-3.860726953E-1,2.443452120E0,-9.406251907E-1,2.646561191E0
6.167685958E0,-3.784775138E-1,2.410205841E0,-9.311571121E-1,2.611396368E0
6.172690804E0,-2.203413248E-1,2.455162048E0,-9.219045639E-1,2.631782477E0
6.177695728E0,-9.421586990E-2,2.633886099E0,-1.097741127E0,2.855042591E0
6.182700651E0,-8.868741989E-2,2.600148201E0,-1.087353706E0,2.819747189E0
6.187705574E0,-1.648821831E-1,2.583539724E0,-1.081916809E0,2.805781108E0
6.192679804E0,-1.541852951E-1,2.532771111E0,-1.066248894E0,2.752378845E0
6.197684709E0,-7.890534401E-2,2.562269211E0,-1.982134342E0,3.240417583E0
6.202689555E0,-7.446098328E-2,2.535020590E0,-1.973387241E0,3.213429793E0
6.207694478E0,-1.079963446E-1,2.697464228E0,-1.963741779E0,3.338301701E0
6.212699380E0,-1.444017887E-1,2.744251966E0,-1.953526020E0,3.371651619E0
6.217704303E0,-1.408283710E-1,2.711334944E0,-1.942351818E0,3.338248102E0
6.222678765E0,-2.897413969E-1,2.791819811E0,-1.930519581E0,3.406627920E0
6.227683457E0,-2.858564854E-1,2.757534027E0,-1.918614864E0,3.371467164E0
6.232688380E0,-3.946557045E-1,2.970696211E0,-1.670261383E0,3.430825293E0
6.237693294E0,-3.907629251E-1,2.917223215E0,-1.650743484E0,3.374587531E0
6.242698217E0,-4.625100493E-1,3.062206030E0,-1.633728981E0,3.501441374E0
6.247703034E0,-4.589627385E-1,3.059135199E0,-1.540991783E0,3.455952927E0
6.252677265E0,-4.556160569E-1,3.017356157E0,-1.525067329E0,3.411429983E0
6.257682188E0,-3.028482795E-1,3.026275158E0,-1.498316765E0,3.390429403E0
6.262687135E0,-3.017635942E-1,2.983036995E0,-1.480909348E0,3.344048964E0
6.267691981E0,-2.242609262E-1,2.901823521E0,-1.463177681E0,3.257569897E0
6.272696889E0,-2.269347906E-1,2.855815887E0,-1.443608284E0,3.207988257E0
6.277701582E0,-1.893583536E-1,2.887686968E0,-1.424470901E0,3.225478253E0
6.282706500E0,-1.897670031E-1,2.833393574E0,-1.707070827E0,3.313339927E0
6.287711423E0,-1.903468370E-1,2.779687881E0,-1.683512211E0,3.255320261E0
6.292685808E0,-1.941465139E-1,2.841176510E0,-1.659657955E0,3.296125204E0
6.297690722E0,-1.933506727E-1,2.822692156E0,-1.651465893E0,3.276021228E0
6.302695645E0,-1.944310665E-1,2.925362110E0,-1.704947948E0,3.391518011E0
6.307700577E0,-1.956398487E-1,2.874399185E0,-1.681293964E0,3.335745047E0
6.312705269E0,-2.001864910E-1,2.862997532E0,-1.657572269E0,3.314268445E0
6.317710173E0,-2.014929056E-1,2.806566715E0,-1.745625496E0,3.311287437E0
6.322684635E0,-1.649956703E-1,2.711912155E0,-1.718006134E0,3.214535143E0
6.327689481E0,-1.667611599E-1,2.812174797E0,-1.691870689E0,3.286116675E0
6.332694409E0,-1.743084192E-1,2.719374657E0,-1.644271851E0,3.182610857E0
6.337699332E0,-2.114144564E-1,2.623771191E0,-1.711863518E0,3.139959878E0
6.342704255E0,-2.128747702E-1,2.564927578E0,-1.681346893E0,3.074263574E0
6.347678471E0,-2.909284830E-1,2.585100174E0,-1.651462555E0,3.081348871E0
6.352683394E0,-2.954591513E-1,2.529629707E0,-1.621297836E0,3.019094109E0
6.357688332E0,-2.583843470E-1,2.511432171E0,-2.356729031E0,3.453726356E0
6.362693178E0,-2.224347591E-1,2.530702591E0,-2.324687481E0,3.443559889E0
6.367698101E0,-2.244095802E-1,2.473355770E0,-2.292403698E0,3.379787440E0
6.372703005E0,-7.759284973E-2,2.453196526E0,-2.258543491E0,3.335447878E0
6.377707697E0,-8.028256893E-2,2.394039154E0,-2.224058628E0,3.268685599E0
6.382682082E0,-8.735179901E-3,2.292627335E0,-2.163489819E0,3.152285614E0
6.387687087E0,-9.337425232E-3,2.276957035E0,-2.154020786E0,3.134394052E0
6.392691933E0,-5.711698532E-2,2.361032963E0,-2.124933243E0,3.176960857E0
6.397696856E0,-1.327730417E-1,2.529602528E0,-2.111130714E0,3.297482452E0
6.402701779E0,-1.348346472E-1,2.465509892E0,-2.070636749E0,3.222492196E0
6.407706732E0,-4.043801427E-1,2.389923096E0,-2.149826050E0,3.239908602E0
6.412680963E0,-4.033202529E-1,2.319046021E0,-2.103339195E0,3.156687733E0
6.417685886E0,-7.112148404E-1,2.410143852E0,-2.061701775E0,3.250420610E0
6.422690809E0,-7.061634660E-1,2.389724731E0,-2.048673630E0,3.225913014E0
6.427695732E0,-8.574600816E-1,2.484166622E0,-2.660905838E0,3.739885222E0
6.432700573E0,-8.594036698E-1,2.494826317E0,-2.587551117E0,3.695693954E0
6.437705496E0,-8.563417792E-1,2.431936264E0,-2.543048859E0,3.621426892E0
6.442679727E0,-7.740385532E-1,2.409775257E0,-2.527878761E0,3.577194921E0
6.447684679E0,-7.715046406E-1,2.348319530E0,-2.483323097E0,3.503814726E0
6.452689525E0,-7.356159091E-1,2.214898586E0,-2.441011906E0,3.377194936E0
6.457694448E0,-7.370014787E-1,2.119025707E0,-2.368047714E0,3.262068532E0
6.462699352E0,-5.418753028E-1,2.136626244E0,-2.275120258E0,3.167802509E0
6.467704276E0,-5.406418443E-1,2.076543331E0,-2.228511810E0,3.093637131E0
6.472678520E0,-3.118618727E-1,1.943806648E0,-2.184291840E0,2.940539569E0
6.477683443E0,-3.535577655E-1,1.853203297E0,-2.141380310E0,2.853922771E0
6.482688290E0,-3.540530801E-1,1.800160408E0,-2.098087311E0,2.787095521E0
6.487693280E0,-3.536754251E-1,1.856475830E0,-2.049571991E0,2.787890629E0
6.492698126E0,-3.556311727E-1,1.798909664E0,-2.000864983E0,2.714039460E0
6.497703045E0,-3.934521079E-1,1.855559349E0,-2.224225521E0,2.923197603E0
6.502677276E0,-3.910006881E-1,1.838868141E0,-2.210103512E0,2.901529788E0
6.507682199E0,-4.272010326E-1,1.892564297E0,-2.156674862E0,2.900956187E0
6.512687059E0,-5.404018760E-1,1.794525146E0,-2.104089737E0,2.817720410E0
6.517691982E0,-5.362780690E-1,1.739587784E0,-2.208875179E0,2.862322376E0
6.522696905E0,-4.552216530E-1,1.722164631E0,-2.157455921E0,2.797801605E0
6.527701828E0,-4.509999752E-1,1.666588306E0,-2.106031418E0,2.723285863E0
6.532706521E0,-3.728312850E-1,1.501277924E0,-2.058211803E0,2.574698895E0
6.537680982E0,-3.680350184E-1,1.449535847E0,-2.009044170E0,2.504568311E0
6.542685900E0,-1.356141567E-1,1.248339176E0,-1.962383747E0,2.329740730E0
6.547690746E0,-1.757681370E-2,1.161813736E0,-1.915669918E0,2.240515864E0
6.552695688E0,-1.568293571E-2,1.113255978E0,-1.614007950E0,1.960766811E0
6.557700611E0,1.027481556E-1,1.064011097E0,-1.564288616E0,1.894643943E0
6.562705535E0,1.115758419E-1,9.749407768E-1,-1.472945690E0,1.769894825E0
6.567679751E0,1.104938984E-1,9.300708771E-1,-1.465581894E0,1.739301879E0
6.572684598E0,1.128878593E-1,8.793110847E-1,-1.126825333E0,1.433759737E0
6.577689545E0,8.980035782E-3,8.691606522E-1,-1.033751011E0,1.350615427E0
6.582694468E0,-1.429531574E-1,7.843017578E-1,-1.025368690E0,1.298824778E0
6.587699381E0,-1.357603073E-1,7.369875908E-1,-9.280438423E-1,1.192831482E0
6.592704304E0,-1.670871973E-1,8.456954956E-1,-8.792147636E-1,1.231315396E0
6.597709227E0,-1.602786779E-1,8.031702042E-1,-8.317418098E-1,1.167290054E0
6.602683458E0,-2.618373036E-1,9.177842140E-1,-7.438554764E-1,1.210044465E0
6.607688381E0,-2.539953589E-1,8.764519691E-1,-8.491382599E-1,1.246482042E0
6.612693183E0,-4.382268786E-1,8.369808197E-1,-8.030123711E-1,1.239922803E0
6.617698106E0,-3.534041643E-1,7.981176376E-1,-7.570452690E-1,1.155423648E0
6.622703029E0,-3.507314920E-1,7.923450470E-1,-8.903956413E-1,1.242428127E0
6.627677274E0,-2.282685637E-1,7.531151772E-1,-8.431897163E-1,1.153368070E0
6.632682197E0,-2.146847844E-1,6.811556816E-1,-7.549381256E-1,1.039227691E0
6.637687120E0,-1.866447926E-2,5.676174164E-1,-7.088742256E-1,9.083174346E-1
6.642692043E0,-1.862645149E-2,5.625829697E-1,-7.283148766E-1,9.204830807E-1
6.647696870E0,6.288588047E-2,4.880933762E-1,-6.815419197E-1,8.406480632E-1
6.652701793E0,6.757926941E-2,4.522151947E-1,-6.350712776E-1,7.825478053E-1
6.657706717E0,7.172727585E-2,2.670812607E-1,-4.429330826E-1,5.221751790E-1
6.662680947E0,4.364073277E-2,2.066812515E-1,-3.627924919E-1,4.198095348E-1
6.667685870E0,4.312527180E-2,2.045817375E-1,-3.598103523E-1,4.161453665E-1
6.672690785E0,9.423255920E-3,1.739902496E-1,-3.185663223E-1,3.631059163E-1
6.677695631E0,1.873624325E-2,1.184930801E-1,-1.554760933E-1,1.963783910E-1
6.682700554E0,-8.955383301E-2,2.055382729E-1,-1.168804169E-1,2.528376998E-1
6.687705481E0,-8.375680447E-2,1.780672073E-1,-7.844400406E-2,2.118409649E-1
6.692679635E0,-2.406120300E-3,2.272062302E-1,-4.031944275E-2,2.307685375E-1
6.697684558E0,-1.493367553E-1,8.653831482E-2,-8.289813995E-2,1.914744056E-1
6.702689481E0,-1.435028911E-1,6.137275696E-2,-4.668235779E-2,1.629077579E-1
6.707694404E0,-1.799030900E-1,9.977722168E-2,-4.612588882E-2,2.108274493E-1
6.712699082E0,-1.733524203E-1,7.499694824E-2,-4.820966721E-2,1.949353121E-1
6.717704005E0,-2.044420242E-1,3.053951263E-2,1.780700684E-2,2.074760049E-1
6.722678467E0,-2.022475004E-1,3.035259247E-2,1.766347885E-2,2.052737922E-1
6.727683395E0,-1.973365545E-1,-3.019428253E-2,4.988718033E-2,2.057720613E-1
6.732688318E0,-1.913771629E-1,-1.270294189E-2,6.608009338E-2,2.028624213E-1
6.737693149E0,-1.853510141E-1,-5.160808563E-2,1.260957718E-1,2.300402934E-1
6.742698072E0,-1.449721456E-1,-8.998107910E-2,1.248292923E-1,2.114139773E-1
6.747702976E0,-1.415783763E-1,-1.083106995E-1,2.512793541E-1,3.080859589E-1
6.752677207E0,-1.362180114E-1,-1.068191528E-1,3.106236458E-1,3.556019226E-1
6.757682130E0,-1.327704787E-1,-1.232538223E-1,3.367152214E-1,3.823566987E-1
6.762686996E0,-2.062671185E-1,-1.394958496E-1,3.626751900E-1,4.399301190E-1
6.767691919E0,-1.667559147E-1,-2.524690628E-1,3.752441406E-1,4.820335339E-1
6.772696842E0,-1.626832485E-1,-2.678575516E-1,3.998351097E-1,5.080173444E-1
6.777701534E0,-1.207597852E-1,-2.816343307E-1,4.221401215E-1,5.216350296E-1
6.782706462E0,-1.177778244E-1,-2.948741913E-1,5.377187729E-1,6.244708827E-1
6.787711385E0,-1.891263723E-1,-3.236846924E-1,5.852003098E-1,6.949819907E-1
6.792685847E0,-1.864545345E-1,-3.207225800E-1,5.796399117E-1,6.881937910E-1
6.797690775E0,-2.181910276E-1,-3.091344833E-1,6.233625412E-1,7.292134880E-1
6.802695621E0,-2.140894532E-1,-3.209104538E-1,6.347031593E-1,7.427421584E-1
6.807700558E0,-1.743183732E-1,-3.555574417E-1,6.286458969E-1,7.429694834E-1
6.812705481E0,-1.695121527E-1,-4.054431915E-1,6.464829445E-1,7.817024683E-1
6.817710381E0,-1.655400395E-1,-4.155158997E-1,6.342144012E-1,7.760701478E-1
6.822684612E0,-1.620834470E-1,-5.412926674E-1,6.522278786E-1,8.629426407E-1
6.827689535E0,-1.586458683E-1,-5.518383980E-1,6.700172424E-1,8.823929024E-1
6.832694362E0,-1.915891171E-1,-4.850025177E-1,6.868214607E-1,8.623558145E-1
6.837699285E0,-1.845114827E-1,-5.050649643E-1,7.760348320E-1,9.441213724E-1
6.842704208E0,-1.457893252E-1,-6.555056572E-1,7.713241577E-1,1.022684287E0
6.847678443E0,-1.774072051E-1,-7.154560089E-1,8.075256348E-1,1.093365569E0
6.852683366E0,-1.725810766E-1,-7.235555649E-1,8.211479187E-1,1.107971474E0
6.857688280E0,-2.098863125E-1,-6.422996521E-1,9.543256760E-1,1.169332546E0
6.862693204E0,-2.052773237E-1,-6.486778259E-1,9.649128914E-1,1.180668704E0
6.867698050E0,-8.686017990E-2,-7.326774597E-1,9.766974449E-1,1.224050183E0
6.872702978E0,-7.873708010E-2,-7.476606369E-1,1.104342461E0,1.335952180E0
6.877677209E0,-3.614205122E-2,-7.904906273E-1,1.112548351E0,1.365263899E0
6.882682055E0,-1.123882532E-1,-8.244066238E-1,1.105041027E0,1.383254522E0
6.887687050E0,-1.083898544E-1,-8.297958374E-1,1.114107132E0,1.393393051E0
6.892691896E0,-1.794347167E-1,-8.715429306E-1,1.282537460E0,1.560988864E0
6.897696799E0,-1.742044091E-1,-8.742761612E-1,1.286539078E0,1.565212056E0
6.902701722E0,-3.959624767E-1,-8.386173248E-1,1.289620876E0,1.588454376E0
6.907706660E0,-3.889538050E-1,-8.414630890E-1,1.274612904E0,1.576065749E0
6.912680891E0,-2.693893909E-1,-9.223074913E-1,1.280445099E0,1.600862706E0
6.917685814E0,-3.387241960E-1,-1.041745663E0,1.287545681E0,1.690485725E0
6.922690742E0,-3.328897953E-1,-1.045443058E0,1.293281078E0,1.695978405E0
6.927695588E0,-2.849928737E-1,-1.247097492E0,1.521915913E0,1.988140120E0
6.932700511E0,-2.823193073E-1,-1.242637157E0,1.513144016E0,1.978245715E0
6.937705434E0,-1.621932983E-1,-1.244586468E0,1.515796661E0,1.967979080E0
6.942679665E0,-1.569893360E-1,-1.246510983E0,1.518415451E0,1.970791913E0
6.947684511E0,-7.488143444E-2,-1.207658768E0,1.669108391E0,2.061545476E0
6.952689435E0,-1.831378341E-1,-1.361835480E0,1.670064926E0,2.162695586E0
6.957694358E0,-1.775492430E-1,-1.362109184E0,1.669569016E0,2.162018932E0
6.962699300E0,-5.755883455E-2,-1.554078579E0,1.832734108E0,2.403619679E0
6.967703992E0,-4.789322615E-2,-1.559324741E0,1.840767860E0,2.412926382E0
6.972678449E0,-4.308664799E-2,-1.675028801E0,1.841142178E0,2.489454250E0
6.977683372E0,-4.168003798E-2,-1.670196533E0,1.831920624E0,2.479360171E0
6.982688218E0,-7.520687580E-2,-1.821346760E0,2.091538429E0,2.774435635E0
6.987693218E0,-6.976789236E-2,-1.819478512E0,2.087144852E0,2.769755088E0
6.992698064E0,-1.329674721E-1,-1.936123848E0,2.087912560E0,2.850549905E0
6.997702996E0,-2.090865970E-1,-2.044447422E0,2.303616524E0,3.087091115E0
7.002677227E0,-1.967108250E-1,-2.043570042E0,2.299932480E0,3.082947141E0
7.007682150E0,-3.107512891E-1,-2.191153049E0,2.289794922E0,3.184474656E0
7.012686991E0,-3.026986420E-1,-2.188218594E0,2.283085346E0,3.176854699E0
7.017691914E0,-2.562667131E-1,-2.258820534E0,2.524977684E0,3.397566061E0
7.022696837E0,-2.489061356E-1,-2.252302170E0,2.511903763E0,3.382969087E0
7.027701755E0,-1.597345471E-1,-2.246989250E0,2.500172615E0,3.365314090E0
7.032706448E0,3.281116486E-2,-2.157927036E0,2.558372974E0,3.347087980E0
7.037681140E0,3.898841143E-2,-2.146008015E0,2.535968304E0,3.322349430E0
7.042685846E0,4.500925541E-2,-2.134107113E0,2.513758183E0,3.297790048E0
7.047690769E0,5.095410347E-2,-2.122217655E0,2.491720676E0,3.273389073E0
7.052695621E0,5.731779337E-2,-2.187035561E0,2.523066044E0,3.339501779E0
7.057700544E0,6.340032816E-2,-2.173334122E0,2.498115540E0,3.311794386E0
7.062705467E0,6.946915388E-2,-2.315198898E0,2.477802277E0,3.391824881E0
7.067679703E0,1.131860018E-1,-2.303964615E0,2.457477570E0,3.370498483E0
7.072684626E0,1.186065674E-1,-2.287419319E0,2.753234386E0,3.581431871E0
7.077689462E0,1.615043283E-1,-2.499007225E0,2.721146584E0,3.698075106E0
7.082694385E0,1.663149595E-1,-2.480648994E0,2.689361572E0,3.662505395E0
7.087699289E0,2.087685466E-1,-2.606569290E0,2.839360714E0,3.860020341E0
7.092703981E0,2.165222168E-1,-2.571689606E0,2.780628204E0,3.793726731E0
7.097708904E0,2.148975730E-1,-2.750053883E0,2.760238171E0,3.902293183E0
7.102683351E0,2.239406705E-1,-2.955983162E0,2.719825745E0,4.023112969E0
7.107688274E0,2.226705551E-1,-2.946634293E0,2.704919338E0,4.006098408E0
7.112693091E0,3.395265341E-2,-3.007080078E0,2.678051949E0,4.026865483E0
7.117698014E0,4.185307026E-2,-2.978838921E0,2.632240295E0,3.975414691E0
7.122702947E0,-3.521388769E-2,-3.082273006E0,2.844074249E0,4.194091706E0
7.127677178E0,-3.131425381E-2,-3.060616970E0,2.809751034E0,4.154883595E0
7.132682101E0,-2.367132902E-2,-3.299338341E0,2.763716221E0,4.303988983E0
7.137687053E0,8.873981237E-2,-3.405386925E0,2.750222206E0,4.378156809E0
7.142691899E0,9.154170752E-2,-3.379212379E0,3.361024857E0,4.766963843E0
7.147696842E0,1.706670523E-1,-3.428731918E0,3.319441795E0,4.775355866E0
7.152701765E0,1.698942780E-1,-3.400460243E0,3.277409077E0,4.725823123E0
7.157706664E0,2.871216536E-1,-3.527887344E0,3.507358074E0,4.982969859E0
7.162680895E0,2.891821265E-1,-3.502199173E0,3.469632149E0,4.938357277E0
7.167685818E0,2.531144619E-1,-3.514149189E0,3.431618214E0,4.918263415E0
7.172690669E0,2.549966574E-1,-3.470840454E0,3.369654655E0,4.844205740E0
7.177695592E0,2.536200881E-1,-3.535030365E0,3.351804733E0,4.878048565E0
7.182700515E0,1.819363236E-1,-3.564411163E0,3.286108971E0,4.851457506E0
7.187705443E0,1.807985306E-1,-3.550596714E0,3.267170429E0,4.828439473E0
7.192679674E0,6.802207232E-2,-3.671458721E0,3.221730709E0,4.885057308E0
7.197684587E0,6.596779823E-2,-3.637701035E0,3.176322937E0,4.829725455E0
7.202689433E0,6.763631105E-2,-3.788968086E0,3.123008728E0,4.910604580E0
7.207694395E0,6.912916899E-2,-3.749033451E0,3.070328236E0,4.846333267E0
7.212699318E0,6.551450491E-2,-3.675347805E0,3.139556885E0,4.834179462E0
7.217704241E0,3.033304214E-2,-3.765262127E0,3.058752060E0,4.851193991E0
7.222678703E0,3.123819828E-2,-3.724591732E0,3.007657051E0,4.787437763E0
7.227683395E0,6.840497255E-2,-3.744087458E0,2.984637260E0,4.788625033E0
7.232688333E0,6.921571493E-2,-3.708444357E0,3.170645714E0,4.879584471E0
7.237693256E0,2.166498899E-1,-3.786002636E0,3.125800133E0,4.914405315E0
7.242698180E0,2.168836594E-1,-3.719221115E0,3.045939922E0,4.812213029E0
7.247703021E0,1.779448986E-1,-3.782749891E0,3.068121910E0,4.873831468E0
7.252677251E0,1.773609519E-1,-3.931073189E0,3.018323421E0,4.959341650E0
7.257682175E0,1.712410450E-1,-3.857308865E0,2.934215546E0,4.849512969E0
7.262687098E0,1.701111794E-1,-3.880259752E0,2.916152477E0,4.856881595E0
7.267691944E0,1.696066856E-1,-3.802387476E0,2.829290867E0,4.742552451E0
7.272696857E0,1.993924379E-1,-3.902847767E0,2.772598267E0,4.791584204E0
7.277701549E0,1.984574795E-1,-3.850725651E0,2.716556549E0,4.716688764E0
7.282706492E0,2.738445401E-1,-4.063532829E0,2.813349247E0,4.949972108E0
7.287711415E0,3.871017694E-1,-4.204380989E0,2.719871044E0,5.022386462E0
7.292685800E0,3.779601455E-1,-4.147412300E0,2.662248135E0,4.942817798E0
7.297690742E0,2.989341617E-1,-4.089029789E0,2.642763615E0,4.877881279E0
7.302695665E0,2.986053824E-1,-4.040581703E0,2.977180004E0,5.027829199E0
7.307700617E0,2.604256868E-1,-4.106107712E0,2.928250313E0,5.050009106E0
7.312705310E0,2.522663474E-1,-4.056016922E0,2.880061626E0,4.980930290E0
7.317710223E0,3.665909171E-1,-4.235487938E0,2.946231365E0,5.172429432E0
7.322684684E0,3.660432100E-1,-4.184623718E0,2.897969723E0,5.103262859E0
7.327689530E0,4.035630822E-1,-4.019339561E0,2.850984097E0,4.944296107E0
7.332694439E0,4.328337312E-1,-4.197070599E0,2.803590775E0,5.065853125E0
7.337699363E0,4.317836165E-1,-4.144205570E0,2.755591393E0,4.995413979E0
7.342704286E0,6.599228382E-1,-4.205943108E0,2.707963943E0,5.045644091E0
7.347678501E0,6.581274867E-1,-4.152413368E0,2.660838604E0,4.975513104E0
7.352683425E0,6.874595284E-1,-4.250885963E0,2.614270210E0,5.037562983E0
7.357688353E0,6.851813793E-1,-4.195508957E0,2.566988945E0,4.966004548E0
7.362693199E0,5.294652581E-1,-4.178413391E0,2.519770622E0,4.908025664E0
7.367698122E0,5.666016936E-1,-4.230705738E0,2.436652660E0,4.914995901E0
7.372703040E0,5.564710498E-1,-4.172125340E0,2.390167236E0,4.840370781E0
7.377707732E0,4.004591107E-1,-4.113272190E0,2.343449116E0,4.750908268E0
7.382682117E0,3.984901309E-1,-4.054513931E0,2.297535419E0,4.677237070E0
7.387687126E0,2.444251776E-1,-4.078268051E0,2.286605358E0,4.681941694E0
7.392691972E0,2.353814244E-1,-4.019732952E0,2.319504261E0,4.646908374E0
7.397696895E0,1.564444900E-1,-3.875264168E0,2.239591599E0,4.478606678E0
7.402701818E0,7.917910814E-2,-3.862614155E0,2.230248451E0,4.460948957E0
7.407706692E0,7.773244381E-2,-3.803744316E0,2.263077259E0,4.426740543E0
7.412680923E0,7.623898983E-2,-3.896972179E0,2.220034599E0,4.485616811E0
7.417685846E0,6.729698181E-2,-3.837234020E0,2.178378582E0,4.412961257E0
7.422690779E0,2.714025974E-2,-4.004899979E0,2.135002136E0,4.538523389E0
7.427695702E0,2.492028475E-2,-3.942460060E0,2.092233658E0,4.463300799E0
7.432700554E0,1.293019056E-1,-3.917869091E0,2.050766945E0,4.424032353E0
7.437705477E0,2.380614877E-1,-4.032540798E0,1.975135803E0,4.496578700E0
7.442679707E0,2.344496846E-1,-3.968034744E0,1.933832169E0,4.420404194E0
7.447684631E0,2.685970068E-1,-4.017643452E0,1.892668724E0,4.449246920E0
7.452689477E0,2.576151490E-1,-3.951831341E0,1.852663994E0,4.372150545E0
7.457694400E0,3.295102715E-1,-4.000392437E0,1.812422752E0,4.404156321E0
7.462699323E0,3.282713890E-1,-3.986962795E0,1.843401909E0,4.404743470E0
7.467704246E0,3.213991523E-1,-3.868671417E0,1.773630142E0,4.267983110E0
7.472678472E0,2.416012883E-1,-3.840781927E0,1.735668182E0,4.221672777E0
7.477683395E0,2.339814305E-1,-3.827521563E0,1.728768349E0,4.206341477E0
7.482688241E0,1.901658773E-1,-3.826349020E0,1.969817162E0,4.307817259E0
7.487693241E0,1.897144914E-1,-3.816441298E0,1.964365005E0,4.296503886E0
7.492698087E0,6.522005796E-2,-3.676532030E0,1.930685997E0,4.153154204E0
7.497703014E0,6.263852119E-2,-3.615459681E0,2.089965820E0,4.176533181E0
7.502677245E0,2.113300562E-2,-3.745787144E0,2.057477951E0,4.273708395E0
7.507682168E0,1.864320040E-2,-3.684324741E0,2.025656700E0,4.204507276E0
7.512686995E0,9.840905666E-3,-3.622531891E0,1.994819641E0,4.135473316E0
7.517691918E0,8.443939686E-2,-3.599301100E0,1.964239120E0,4.101260019E0
7.522696841E0,8.191782236E-2,-3.538022757E0,1.934145927E0,4.033018228E0
7.527701756E0,2.320109010E-1,-3.515655279E0,1.904577255E0,4.005131162E0
7.532706448E0,2.208654881E-1,-3.399270773E0,1.581530571E0,3.755670686E0
7.537680909E0,1.800615191E-1,-3.374351025E0,1.552697182E0,3.718808348E0
7.542685833E0,1.773222685E-1,-3.310968876E0,1.524243355E0,3.649284298E0
7.547690679E0,1.390494704E-1,-3.338770628E0,1.519727707E0,3.671007541E0
7.552695611E0,1.664248705E-1,-3.335161686E0,1.315596581E0,3.589121769E0
7.557700534E0,1.658896208E-1,-3.323177099E0,1.310483932E0,3.576086344E0
7.562705457E0,8.679759502E-2,-3.219903231E0,1.282941818E0,3.467167482E0
7.567679683E0,8.465427160E-2,-3.154751778E0,1.255964279E0,3.396626473E0
7.572684529E0,6.782472134E-3,-2.898648024E0,1.229928970E0,3.148798444E0
7.577689452E0,-4.079937935E-4,-2.834441900E0,1.204900742E0,3.079910202E0
7.582694375E0,-4.064351320E-2,-2.961619377E0,1.179580688E0,3.188142379E0
7.587699308E0,-7.971888781E-2,-3.014170647E0,1.423714638E0,3.334447954E0
7.592704231E0,-8.596849442E-2,-2.951861382E0,1.400856018E0,3.268527770E0
7.597709154E0,-4.894226789E-2,-3.042739391E0,1.378030777E0,3.340602816E0
7.602683385E0,-4.984396696E-2,-2.980622530E0,1.355681419E0,3.274823232E0
7.607688308E0,6.400221586E-2,-2.919216871E0,1.373082161E0,3.226651212E0
7.612693189E0,5.761289597E-2,-2.805226564E0,1.334606171E0,3.107054707E0
7.617698112E0,2.481065989E-1,-2.782773733E0,1.314668655E0,3.087675535E0
7.622703026E0,2.077125311E-1,-2.837113380E0,1.295057297E0,3.125624774E0
7.627677256E0,2.073076963E-1,-2.829194307E0,1.292552948E0,3.117372296E0
7.632682165E0,2.049682736E-1,-2.678236723E0,1.257290840E0,2.965761992E0
7.637687089E0,2.009687424E-1,-2.670844793E0,1.255409241E0,2.958014994E0
7.642692012E0,9.297311306E-3,-2.530473709E0,7.762689590E-1,2.646880641E0
7.647696853E0,8.567512035E-3,-2.467376709E0,7.576951981E-1,2.581108917E0
7.652701776E0,4.214990139E-2,-2.443488359E0,7.399959564E-1,2.553430240E0
7.657706713E0,4.129201174E-2,-2.379538059E0,5.691146851E-1,2.446997738E0
7.662680944E0,-7.387280464E-2,-2.239149332E0,5.517673492E-1,2.307313184E0
7.667685867E0,-1.117109656E-1,-2.176226616E0,5.349912643E-1,2.243804197E0
7.672690805E0,-1.147259474E-1,-2.113461733E0,5.190086365E-1,2.179277978E0
7.677695651E0,-1.144444346E-1,-2.090402603E0,4.945850372E-1,2.151161298E0
7.682700574E0,-1.142199636E-1,-2.029709101E0,4.796609879E-1,2.088741223E0
7.687705511E0,-3.764265776E-2,-2.083783150E0,4.651403427E-1,2.135398025E0
7.692679665E0,-3.806686401E-2,-2.023122311E0,4.511079788E-1,2.073154934E0
7.697684583E0,-3.903448582E-3,-2.074012041E0,6.837167740E-1,2.183806267E0
7.702689506E0,3.344607353E-2,-2.019302845E0,6.720457077E-1,2.128461429E0
7.707694429E0,3.349107504E-2,-2.010667562E0,6.702194214E-1,2.119693320E0
7.712699132E0,2.989327908E-2,-1.950205445E0,6.463346481E-1,2.054736811E0
7.717704055E0,2.995717525E-2,-1.941797495E0,6.446523666E-1,2.046228633E0
7.722678516E0,-4.606062174E-2,-1.851644635E0,6.344165802E-1,1.957854395E0
7.727683453E0,-4.607027769E-2,-1.799874425E0,6.245622635E-1,1.905714679E0
7.732688377E0,-8.711272478E-2,-1.670989275E0,4.930496216E-1,1.744388636E0
7.737693300E0,2.776002884E-2,-1.620527267E0,4.840250015E-1,1.691496215E0
7.742698151E0,2.754145861E-2,-1.570277095E0,4.753131866E-1,1.640869072E0
7.747703074E0,-1.048445702E-2,-1.593491554E0,3.243808746E-1,1.626206693E0
7.752677300E0,-1.060396433E-2,-1.540973902E0,3.158512115E-1,1.573046407E0
7.757682223E0,-5.028361082E-2,-1.526776552E0,3.078117371E-1,1.558307783E0
7.762687069E0,-5.014300346E-2,-1.476871133E0,3.002290726E-1,1.507912517E0
7.767692011E0,-2.020387650E-1,-1.340952992E0,1.200437546E-1,1.361390867E0
7.772696934E0,-1.622601151E-1,-1.361952305E0,1.176338196E-1,1.376619098E0
7.777701626E0,-1.612851024E-1,-1.269876599E0,1.053829193E-1,1.284408432E0
7.782706549E0,-1.602456570E-1,-1.295032978E0,1.388444901E-1,1.312275458E0
7.787711473E0,-1.585098505E-1,-1.282619476E0,1.371746063E-1,1.299636475E0
7.792685934E0,-8.448195457E-2,-1.235907555E0,1.274032593E-1,1.245325771E0
7.797690847E0,-8.441120386E-2,-1.188327432E0,1.222038269E-1,1.197573009E0
7.802695693E0,-4.486948252E-2,-1.138838768E0,1.210393906E-1,1.146131556E0
7.807700602E0,-4.524493217E-2,-1.131319284E0,1.162767410E-1,1.138178680E0
7.812705526E0,-4.661160707E-2,-1.085298300E0,1.118831635E-1,1.092045275E0
7.817710444E0,-1.230050921E-1,-9.263574481E-1,9.076976776E-2,9.388863217E-1
7.822684674E0,-1.225149035E-1,-8.829278946E-1,8.685207367E-2,8.956086485E-1
7.827689598E0,-3.128015399E-1,-7.673870325E-1,8.025932312E-2,8.325678471E-1
7.832694463E0,-3.107553720E-1,-7.263839245E-1,7.691955566E-2,7.938004315E-1
7.837699386E0,-2.320743203E-1,-6.861211658E-1,7.578659058E-2,7.282611836E-1
7.842704309E0,-2.294918895E-1,-6.791043282E-1,7.505035400E-2,7.207508387E-1
7.847678540E0,-1.516497135E-1,-6.774887443E-1,7.230186462E-2,6.980087348E-1
7.852683463E0,-1.514927745E-1,-6.009790301E-1,6.983280182E-2,6.237006298E-1
7.857688391E0,-1.504827738E-1,-5.639201403E-1,5.162239075E-2,5.859316180E-1
7.862693314E0,-3.015226126E-1,-4.892161787E-1,4.928302765E-2,5.767817370E-1
7.867698160E0,-2.986190319E-1,-4.529126287E-1,4.711627960E-2,5.445393642E-1
7.872703049E0,-1.832234859E-1,-3.884723783E-1,4.405403137E-2,4.317665945E-1
7.877677280E0,-1.817514896E-1,-3.555200994E-1,4.253196716E-2,4.015434140E-1
7.882682126E0,-6.609165668E-2,-4.648025930E-1,4.227256775E-2,4.713772667E-1
7.887687146E0,-6.603890657E-2,-2.809118927E-1,4.105281830E-2,2.914754921E-1
7.892691992E0,-6.636440754E-2,-2.500123680E-1,1.000013351E-1,2.773277587E-1
7.897696905E0,-2.764964104E-2,-2.698405981E-1,9.831237793E-2,2.885199728E-1
7.902701828E0,-2.769732475E-2,-2.408053726E-1,9.755706787E-2,2.612886350E-1
7.907706747E0,-1.804022789E-1,-2.873664796E-1,9.766197205E-2,3.530755396E-1
7.912680977E0,-1.792557240E-1,-2.582774758E-1,9.696960449E-2,3.290029989E-1
7.917685900E0,-2.916857004E-1,-1.807270795E-1,9.669876099E-2,3.565017188E-1
7.922690824E0,-1.749884486E-1,-2.046756446E-1,9.572124481E-2,2.857894913E-1
7.927695670E0,-1.730485559E-1,-2.025366127E-1,3.551483154E-2,2.687530194E-1
7.932700588E0,-2.847412825E-1,-1.502679884E-1,3.466892242E-2,3.238209389E-1
7.937705511E0,-2.813478708E-1,-1.485892087E-1,3.434467316E-2,3.200233334E-1
7.942679742E0,-2.777106762E-1,-1.612482369E-1,3.385734558E-2,3.229094818E-1
7.947684583E0,-2.742390633E-1,-1.364050955E-1,1.245307922E-2,3.065428079E-1
7.952689506E0,-3.074499369E-1,-5.211482197E-2,1.202774048E-2,3.120674364E-1
7.957694429E0,-1.903103590E-1,-5.152339488E-2,1.182842255E-2,1.975160868E-1
7.962699372E0,-1.878247261E-1,-2.923557535E-2,6.673526764E-2,2.014607717E-1
7.967704064E0,-3.369167447E-1,1.058682278E-1,6.651020050E-2,3.593669174E-1
7.972678511E0,-3.330772519E-1,1.267904341E-1,6.633472443E-2,3.625142281E-1
7.977683434E0,-3.665390611E-1,1.474097669E-1,6.614589691E-2,4.005693477E-1
7.982688357E0,-3.618457317E-1,1.666074395E-1,6.701660156E-2,4.039574202E-1
7.987693280E0,-3.572370410E-1,2.610317767E-1,6.687068939E-2,4.474679664E-1
7.992698126E0,-3.522660136E-1,2.792738080E-1,6.672859192E-2,4.544644201E-1
7.997703035E0,-3.095529675E-1,2.584131360E-1,7.156848907E-2,4.095392987E-1
8.002677266E0,-3.048484921E-1,2.375850081E-1,7.150077820E-2,3.930541954E-1
8.007682189E0,-3.002185225E-1,2.546008229E-1,7.146549225E-2,4.000750641E-1
8.012687035E0,-2.926924229E-1,3.272162974E-1,7.165050507E-2,4.448293544E-1
8.017691959E0,-2.895706892E-1,3.238269389E-1,1.624965668E-2,4.347172894E-1
8.022696882E0,-3.215966225E-1,4.143264890E-1,1.610374451E-2,5.247381801E-1
